timestamp_ms,ax,ay,az,gx,gy,gz
19973,0.0566,-0.0071,1.0376,0.3053,-2.5191,-0.8244
19997,0.0498,-0.0227,1.0337,0.0305,-2.4275,-0.8244
20006,0.0515,-0.0217,1.0405,0.5954,-2.5191,-0.8550
20016,0.0569,-0.0337,1.0410,-0.1527,-2.4885,-0.8092
20026,0.0574,-0.0291,1.0435,0.4122,-2.7328,-0.8397
20036,0.0508,-0.0352,1.0356,-0.2290,-2.4733,-0.7939
20046,0.0549,-0.0259,1.0442,0.3969,-2.6260,-0.7939
20056,0.0566,-0.0256,1.0405,-0.0305,-2.4885,-0.7939
20066,0.0522,-0.0264,1.0430,0.0153,-2.4275,-0.8550
20076,0.0544,-0.0198,1.0408,0.3664,-2.5954,-0.8550
20086,0.0547,-0.0276,1.0413,-0.2137,-2.4733,-0.7786
20096,0.0557,-0.0295,1.0420,0.0305,-2.5649,-0.8397
20106,0.0544,-0.0247,1.0439,0.1832,-2.5649,-0.8702
20116,0.0510,-0.0264,1.0432,0.1832,-2.5191,-0.8397
20126,0.0559,-0.0234,1.0415,0.2748,-2.5191,-0.8550
20136,0.0544,-0.0254,1.0435,0.3664,-2.5954,-0.8397
20146,0.0522,-0.0269,1.0410,0.4427,-2.5496,-0.7786
20156,0.0569,-0.0247,1.0396,0.5496,-2.5954,-0.7939
20166,0.0535,-0.0261,1.0393,0.1374,-2.5038,-0.8244
20178,0.0510,-0.0276,1.0400,0.4733,-2.5649,-0.8855
20186,0.0527,-0.0244,1.0408,0.3053,-2.5954,-0.8397
20197,0.0537,-0.0264,1.0410,0.2595,-2.5496,-0.8244
20206,0.0540,-0.0254,1.0400,0.2901,-2.5344,-0.8397
20216,0.0535,-0.0273,1.0400,0.1985,-2.5191,-0.7786
20226,0.0547,-0.0247,1.0422,0.2443,-2.5191,-0.9008
20236,0.0547,-0.0249,1.0444,0.2595,-2.5344,-0.8702
20246,0.0532,-0.0232,1.0432,0.2290,-2.5954,-0.8397
20256,0.0535,-0.0259,1.0437,0.1527,-2.4580,-0.7786
20266,0.0544,-0.0266,1.0403,0.0153,-2.4122,-0.8244
20276,0.0530,-0.0242,1.0422,-0.0305,-2.4427,-0.7939
20286,0.0552,-0.0256,1.0408,-0.1069,-2.4580,-0.8244
20296,0.0549,-0.0247,1.0425,0.0000,-2.4733,-0.8397
20306,0.0535,-0.0234,1.0400,0.1221,-2.4733,-0.8092
20316,0.0493,-0.0261,1.0376,0.0763,-2.4427,-0.8397
20326,0.0540,-0.0247,1.0442,0.1832,-2.5802,-0.7634
20336,0.0522,-0.0259,1.0396,0.3053,-2.5649,-0.7939
20346,0.0540,-0.0247,1.0388,0.1985,-2.6260,-0.7786
20356,0.0542,-0.0266,1.0388,0.1679,-2.5649,-0.7328
20366,0.0535,-0.0232,1.0403,0.2443,-2.5038,-0.7786
20376,0.0535,-0.0281,1.0371,0.1985,-2.4733,-0.7786
20386,0.0515,-0.0251,1.0405,0.4427,-2.5802,-0.9160
20398,0.0544,-0.0215,1.0422,0.4733,-2.6260,-0.7634
20406,0.0532,-0.0229,1.0452,0.4122,-2.6107,-0.8092
20416,0.0525,-0.0237,1.0447,0.2901,-2.5802,-0.8092
20426,0.0564,-0.0249,1.0432,0.2290,-2.6107,-0.8550
20436,0.0562,-0.0261,1.0398,0.2443,-2.5954,-0.7939
20446,0.0540,-0.0271,1.0447,0.2595,-2.6107,-0.7939
20456,0.0540,-0.0261,1.0452,0.2290,-2.6565,-0.8397
20466,0.0559,-0.0264,1.0413,0.2290,-2.5496,-0.8092
20476,0.0527,-0.0239,1.0393,0.1527,-2.5038,-0.8244
20486,0.0535,-0.0244,1.0374,0.1069,-2.5191,-0.7939
20496,0.0537,-0.0256,1.0410,0.0000,-2.5191,-0.8244
20506,0.0549,-0.0276,1.0422,0.1374,-2.5649,-0.8092
20516,0.0562,-0.0259,1.0425,0.3359,-2.5954,-0.7786
20526,0.0574,-0.0256,1.0449,0.3359,-2.6107,-0.8092
20536,0.0532,-0.0251,1.0405,0.4122,-2.6870,-0.7328
20546,0.0527,-0.0269,1.0422,0.2137,-2.6412,-0.8092
20556,0.0527,-0.0242,1.0439,0.1221,-2.4580,-0.7939
20566,0.0540,-0.0234,1.0474,-0.3664,-2.4733,-0.8244
20576,0.0532,-0.0266,1.0422,-0.9160,-2.3053,-0.7786
20586,0.0537,-0.0322,1.0437,-0.3664,-2.3206,-0.8092
20596,0.0510,-0.0254,1.0422,0.2443,-2.4122,-0.9008
20606,0.0547,-0.0242,1.0396,0.1221,-2.5038,-0.8397
20616,0.0547,-0.0264,1.0432,0.1374,-2.5649,-0.8855
20626,0.0530,-0.0273,1.0430,0.3359,-2.5954,-0.8855
20636,0.0535,-0.0227,1.0471,0.2748,-2.6107,-0.7939
20646,0.0532,-0.0237,1.0449,0.0000,-2.4580,-0.7786
20656,0.0532,-0.0242,1.0396,-0.1374,-2.4885,-0.8702
20666,0.0527,-0.0254,1.0432,-0.1832,-2.5344,-0.8702
20676,0.0527,-0.0256,1.0425,-0.1221,-2.4885,-0.8244
20686,0.0530,-0.0288,1.0439,-0.1527,-2.4733,-0.7786
20696,0.0525,-0.0317,1.0422,0.0611,-2.4885,-0.7939
20706,0.0566,-0.0283,1.0442,0.3053,-2.5496,-0.8397
20716,0.0549,-0.0283,1.0396,-0.0305,-2.5496,-0.7786
20726,0.0540,-0.0256,1.0393,0.0153,-2.5038,-0.8092
20736,0.0557,-0.0266,1.0386,0.0916,-2.5038,-0.7786
20746,0.0566,-0.0227,1.0432,-0.3053,-2.3817,-0.7786
20756,0.0542,-0.0269,1.0398,-0.5191,-2.3817,-0.7939
20766,0.0537,-0.0298,1.0396,-0.2748,-2.4427,-0.7481
20776,0.0532,-0.0305,1.0420,0.3664,-2.5191,-0.7786
20786,0.0540,-0.0251,1.0425,0.7023,-2.6565,-0.8397
20796,0.0532,-0.0266,1.0410,0.2901,-2.6107,-0.8397
20806,0.0540,-0.0276,1.0398,-0.1985,-2.4733,-0.7786
20816,0.0522,-0.0278,1.0391,-0.5802,-2.4580,-0.7786
20826,0.0544,-0.0288,1.0442,-0.3817,-2.4122,-0.7634
20836,0.0527,-0.0295,1.0444,-0.0763,-2.4733,-0.8550
20846,0.0535,-0.0269,1.0444,0.1832,-2.4885,-0.8092
20859,0.0540,-0.0256,1.0400,0.0916,-2.5344,-0.7634
20867,0.0540,-0.0295,1.0400,-0.1679,-2.5191,-0.8092
20876,0.0544,-0.0283,1.0393,0.2595,-2.5802,-0.8092
20886,0.0542,-0.0244,1.0444,0.7634,-2.6870,-0.7481
20896,0.0542,-0.0205,1.0403,-0.1679,-2.4885,-0.7634
20906,0.0544,-0.0249,1.0415,-1.6489,-2.1374,-0.7481
20916,0.0518,-0.0264,1.0405,-1.5725,-2.1832,-0.7176
20926,0.0549,-0.0288,1.0422,-0.7939,-2.3206,-0.7634
20936,0.0540,-0.0271,1.0410,-0.8244,-2.3511,-0.7176
20946,0.0513,-0.0344,1.0398,-0.5802,-2.4427,-0.7634
20956,0.0527,-0.0288,1.0427,0.1679,-2.4885,-0.7634
20966,0.0520,-0.0286,1.0444,0.2748,-2.5191,-0.8092
20976,0.0537,-0.0298,1.0432,0.4885,-2.5038,-0.8092
20986,0.0547,-0.0281,1.0417,1.1298,-2.6565,-0.8397
20996,0.0554,-0.0276,1.0435,1.6183,-2.7939,-0.8855
21006,0.0530,-0.0239,1.0454,1.0229,-2.6718,-0.8244
21016,0.0547,-0.0295,1.0447,-0.0763,-2.5649,-0.8702
21026,0.0540,-0.0286,1.0420,-0.3969,-2.4580,-0.8397
21036,0.0525,-0.0266,1.0352,-0.1985,-2.3969,-0.7634
21046,0.0557,-0.0276,1.0403,-0.2290,-2.4733,-0.7939
21056,0.0513,-0.0305,1.0386,0.3664,-2.5802,-0.7939
21066,0.0542,-0.0247,1.0393,0.7634,-2.6412,-0.8550
21076,0.0518,-0.0251,1.0435,0.4580,-2.6107,-0.8244
21087,0.0537,-0.0276,1.0442,0.0458,-2.5191,-0.8397
21096,0.0535,-0.0278,1.0371,-0.2290,-2.4427,-0.8550
21106,0.0552,-0.0276,1.0403,0.2748,-2.4733,-0.7786
21116,0.0530,-0.0259,1.0435,0.2137,-2.5191,-0.8092
21126,0.0544,-0.0254,1.0391,-0.3664,-2.4427,-0.8092
21136,0.0525,-0.0281,1.0378,-0.3359,-2.4733,-0.7634
21146,0.0525,-0.0286,1.0403,-0.2137,-2.4580,-0.8092
21156,0.0515,-0.0300,1.0417,-0.0153,-2.5649,-0.7939
21166,0.0547,-0.0312,1.0430,0.1069,-2.6565,-0.7786
21176,0.0552,-0.0315,1.0403,0.3053,-2.6107,-0.8092
21186,0.0522,-0.0278,1.0376,0.3969,-2.6412,-0.7481
21202,0.0552,-0.0283,1.0413,0.8702,-2.5954,-0.8092
21210,0.0540,-0.0276,1.0447,0.9313,-2.6260,-0.8244
21216,0.0520,-0.0256,1.0420,0.4580,-2.5649,-0.8244
21226,0.0562,-0.0273,1.0435,-0.2748,-2.5191,-0.7939
21236,0.0569,-0.0278,1.0391,-0.3817,-2.5191,-0.7939
21246,0.0532,-0.0278,1.0388,-0.1374,-2.5802,-0.7786
21256,0.0544,-0.0273,1.0432,-0.0916,-2.5344,-0.7786
21266,0.0557,-0.0283,1.0391,-0.2901,-2.4427,-0.8244
21276,0.0552,-0.0295,1.0393,0.0000,-2.5344,-0.7939
21286,0.0513,-0.0315,1.0381,0.5038,-2.6107,-0.7939
21296,0.0525,-0.0327,1.0413,0.9618,-2.6565,-0.8397
21306,0.0530,-0.0291,1.0422,1.3282,-2.7634,-0.8397
21316,0.0540,-0.0266,1.0413,1.2672,-2.7176,-0.8702
21326,0.0525,-0.0266,1.0413,0.8702,-2.7023,-0.8550
21336,0.0527,-0.0264,1.0430,0.8092,-2.7176,-0.7939
21348,0.0547,-0.0242,1.0461,0.3053,-2.6412,-0.8092
21356,0.0520,-0.0266,1.0432,-0.1221,-2.5344,-0.7176
21366,0.0530,-0.0295,1.0408,-0.5191,-2.4580,-0.7939
21376,0.0544,-0.0288,1.0432,-0.0916,-2.5191,-0.7634
21386,0.0515,-0.0264,1.0452,-0.0305,-2.3969,-0.7939
21396,0.0552,-0.0298,1.0408,-0.7481,-2.2595,-0.7176
21406,0.0530,-0.0322,1.0410,-0.3053,-2.4580,-0.7328
21416,0.0557,-0.0286,1.0447,0.5344,-2.4885,-0.8244
21426,0.0544,-0.0256,1.0427,0.1221,-2.4580,-0.8244
21436,0.0530,-0.0271,1.0452,-0.3664,-2.4122,-0.7939
21446,0.0518,-0.0288,1.0388,-0.4580,-2.4275,-0.8244
21456,0.0520,-0.0303,1.0403,0.4275,-2.5802,-0.8550
21466,0.0554,-0.0264,1.0469,0.6412,-2.7023,-0.8244
21476,0.0557,-0.0266,1.0398,0.1679,-2.5802,-0.8397
21486,0.0535,-0.0300,1.0403,0.2290,-2.5496,-0.8244
21496,0.0542,-0.0286,1.0471,0.5954,-2.5802,-0.7786
21506,0.0559,-0.0273,1.0393,0.4733,-2.5649,-0.8702
21516,0.0549,-0.0286,1.0439,0.5191,-2.5802,-0.7939
21526,0.0547,-0.0242,1.0391,0.3206,-2.5802,-0.8550
21536,0.0532,-0.0269,1.0398,-0.1374,-2.5344,-0.8397
21546,0.0530,-0.0278,1.0393,-0.1221,-2.4580,-0.8244
21556,0.0547,-0.0264,1.0403,-0.1985,-2.5191,-0.8092
21566,0.0544,-0.0273,1.0435,-0.1832,-2.5038,-0.7786
21576,0.0549,-0.0330,1.0400,-0.0611,-2.5038,-0.8397
21586,0.0522,-0.0303,1.0376,0.4733,-2.5802,-0.8550
21600,0.0537,-0.0291,1.0413,0.6260,-2.6412,-0.7939
21606,0.0535,-0.0266,1.0459,0.6107,-2.6412,-0.8092
21616,0.0552,-0.0256,1.0381,0.5954,-2.6412,-0.8244
21626,0.0518,-0.0283,1.0364,0.3206,-2.4885,-0.7634
21636,0.0537,-0.0308,1.0374,0.4427,-2.6107,-0.7939
21646,0.0537,-0.0266,1.0415,0.7634,-2.6718,-0.8244
21656,0.0557,-0.0242,1.0420,0.3969,-2.6260,-0.8092
21666,0.0542,-0.0286,1.0439,-0.0763,-2.5344,-0.7481
21676,0.0537,-0.0242,1.0391,0.0763,-2.5496,-0.7328
21686,0.0522,-0.0276,1.0439,0.1832,-2.5496,-0.8092
21696,0.0525,-0.0271,1.0413,0.0153,-2.5344,-0.8092
21706,0.0498,-0.0300,1.0427,0.1221,-2.5344,-0.7939
21716,0.0552,-0.0293,1.0391,0.5954,-2.6870,-0.8550
21726,0.0554,-0.0259,1.0415,0.9618,-2.6718,-0.8244
21736,0.0566,-0.0261,1.0439,0.9313,-2.6718,-0.8855
21746,0.0557,-0.0276,1.0439,0.7328,-2.6107,-0.8397
21756,0.0564,-0.0242,1.0413,0.2290,-2.5649,-0.8244
21766,0.0564,-0.0217,1.0408,-0.8092,-2.3206,-0.7634
21776,0.0522,-0.0359,1.0396,-1.2214,-2.2748,-0.7481
21786,0.0537,-0.0295,1.0449,0.3969,-2.4580,-0.8244
21796,0.0552,-0.0261,1.0396,0.6565,-2.5802,-0.8092
21806,0.0547,-0.0269,1.0432,-0.3206,-2.5038,-0.8244
21816,0.0540,-0.0305,1.0391,0.3969,-2.5344,-0.8092
21826,0.0525,-0.0269,1.0413,0.8244,-2.7023,-0.8702
21836,0.0579,-0.0256,1.0437,0.9771,-2.7328,-0.8702
21850,0.0537,-0.0237,1.0417,0.3359,-2.5649,-0.7634
21856,0.0549,-0.0222,1.0437,-0.2290,-2.4885,-0.7481
21866,0.0488,-0.0254,1.0422,-0.7634,-2.4427,-0.7786
21876,0.0527,-0.0283,1.0417,-0.1374,-2.3664,-0.7634
21886,0.0513,-0.0208,1.0408,-0.3969,-2.3053,-0.7481
21896,0.0552,-0.0386,1.0408,-1.2061,-2.4580,-0.8092
21906,0.0525,-0.0308,1.0422,0.9771,-2.4885,-0.7481
21916,0.0520,-0.0229,1.0391,0.0153,-2.6565,-0.8092
21926,0.0537,-0.0337,1.0430,0.4885,-2.3817,-0.7939
21936,0.0525,-0.0195,1.0400,0.2137,-2.7176,-0.8092
21946,0.0500,-0.0374,1.0410,0.5649,-2.2443,-0.7481
21956,0.0549,-0.0339,1.0522,-0.0763,-3.0382,-0.8855
21966,0.0466,-0.0063,1.0251,1.4351,-1.9237,-0.7176
21976,0.0745,-0.0508,1.0757,-0.6870,-3.1450,-0.9313
21986,0.0337,-0.0107,1.0205,-0.0153,-2.4580,-0.7634
21996,0.0400,0.0000,1.0166,1.0687,-1.5267,-0.4580
22006,0.0955,-0.0659,1.1011,-0.6718,-3.4656,-0.8244
22016,0.0525,-0.0461,1.0564,-1.0076,-3.2214,-0.6718
22026,-0.0002,0.0107,0.9634,0.7176,-1.3130,-0.3664
22036,0.0317,-0.0010,0.9919,1.4656,-1.6336,-0.4885
22046,0.0830,-0.0232,1.0640,0.6870,-2.8092,-0.5344
22056,0.1067,-0.0344,1.1050,-0.3053,-3.3435,-0.2748
22066,0.1011,-0.0474,1.1084,-0.0305,-3.4198,-0.2137
22076,0.0964,-0.0508,1.1128,0.2290,-3.4046,-0.2901
22086,0.0898,-0.0496,1.1060,0.2901,-3.4046,-0.1985
22102,0.0881,-0.0242,1.1084,0.4580,-3.3282,0.0153
22107,0.0220,-0.0352,0.9812,0.5496,-1.9695,-0.1374
22116,0.0901,-0.0056,1.0867,0.5344,-3.1298,0.2901
22126,0.0371,-0.0725,1.0830,0.6260,-2.7939,0.1985
22136,0.0605,-0.0566,1.1318,0.4733,-3.2672,0.3664
22146,0.0835,-0.0039,1.0964,0.4580,-3.2214,0.5954
22156,0.0710,0.0146,0.9854,1.0076,-2.5649,0.8092
22166,0.0315,-0.0251,0.9624,1.1145,-2.1221,0.4275
22176,0.0315,-0.0725,1.0825,0.7634,-2.6107,0.2443
22186,0.0696,-0.0149,1.1226,0.5038,-3.1603,0.5954
22196,0.0703,0.0134,0.9695,0.7939,-2.4275,0.7634
22209,0.0266,-0.0591,1.0088,0.4275,-2.1679,0.3664
22217,0.0525,-0.0312,1.1396,0.3969,-2.9924,0.5954
22226,0.0706,0.0090,0.9653,1.2672,-2.5649,0.5344
22236,0.0310,-0.0720,1.0491,1.3282,-2.5191,0.0305
22246,0.0725,0.0176,1.1057,0.8702,-2.9771,0.4580
22256,0.0454,-0.0422,0.9443,0.4580,-2.2290,0.0916
22266,0.0542,-0.0320,1.1482,0.2595,-2.8702,-0.0153
22276,0.0603,-0.0120,0.9409,0.2595,-2.3053,0.3969
22286,0.0432,-0.0554,1.1360,0.3511,-2.6412,0.1221
22296,0.0635,-0.0059,0.9497,0.5038,-2.4733,0.4427
22306,0.0466,-0.0588,1.1392,0.5954,-2.7786,0.3206
22316,0.0586,-0.0115,0.9399,0.8397,-2.4275,0.5649
22326,0.0537,-0.0205,1.1443,-0.1221,-2.7328,0.4275
22336,0.0461,-0.0520,0.9534,-0.4275,-2.1985,0.4427
22346,0.0623,0.0300,1.0955,-0.3817,-2.7023,0.5802
22356,0.0466,-0.0881,1.0513,-0.2748,-2.3206,0.8397
22366,0.0588,0.0110,0.9692,-0.0763,-2.4885,0.8855
22376,0.0569,-0.0181,1.1316,-0.3511,-2.6718,0.8702
22386,0.0439,-0.0823,1.0078,-0.0305,-2.3969,0.9466
22396,0.0579,0.0178,0.9802,-0.1221,-2.5802,1.3893
22406,0.0596,-0.0042,1.1233,-0.6107,-2.7023,1.4351
22416,0.0510,-0.0938,1.0576,-1.1756,-2.2595,1.6489
22426,0.0498,-0.0251,0.9543,-1.3893,-2.3969,2.1832
22436,0.0554,0.0327,1.0364,-1.1908,-2.6107,2.6260
22446,0.0554,-0.0359,1.1233,-0.7176,-2.6260,3.0840
22456,0.0498,-0.0979,1.0630,0.1069,-2.4885,3.5267
22466,0.0496,-0.0215,0.9565,-0.1832,-2.5649,4.1832
22476,0.0515,0.0344,1.0015,0.7023,-2.7634,4.4733
22486,0.0562,0.0291,1.0933,2.2595,-3.0534,3.9084
22496,0.0549,-0.0310,1.1289,2.3969,-2.9771,3.3435
22506,0.0520,-0.0725,1.1016,2.7939,-2.9008,2.2595
22516,0.0479,-0.0820,1.0361,2.5344,-2.8550,1.5420
22526,0.0498,-0.0637,0.9844,2.3664,-2.8092,0.8550
22536,0.0413,-0.0369,0.9543,2.2748,-2.7939,0.1679
22546,0.0535,-0.0022,0.9473,0.8244,-2.6107,-0.3053
22556,0.0562,0.0127,0.9690,-0.0916,-2.4580,-0.9008
22599,0.0574,0.0354,1.0583,-0.7481,-2.4122,-0.4885
22606,0.0564,0.0359,1.0605,-0.3206,-2.4580,-0.3053
22616,0.0566,0.0393,1.0647,0.7786,-2.6565,0.2595
22626,0.0581,0.0454,1.0601,1.4198,-2.7023,-0.1527
22637,0.0559,0.0466,1.0496,0.9618,-2.6412,-0.0763
22646,0.0554,0.0415,1.0332,0.1527,-2.4885,-0.5802
22656,0.0542,0.0398,1.0110,-0.2901,-2.5038,0.0458
22666,0.0564,0.0286,0.9851,-0.5191,-2.4275,0.1221
22676,0.0540,0.0081,0.9673,-0.7481,-2.3206,0.2595
22686,0.0527,-0.0151,0.9575,-0.1527,-2.6260,0.7023
22696,0.0474,-0.0457,0.9609,-0.0611,-2.5344,0.4580
22706,0.0469,-0.0735,0.9795,0.0153,-2.3511,0.6260
22716,0.0549,-0.0991,1.0225,-0.0763,-2.4427,0.5649
22726,0.0559,-0.0911,1.0808,-0.2290,-2.5038,0.8397
22736,0.0552,-0.0547,1.1208,-0.1985,-2.4580,0.4885
22746,0.0564,-0.0105,1.1213,-1.0687,-2.3664,0.7023
22756,0.0557,0.0349,1.0830,-1.1908,-2.3206,0.8397
22766,0.0471,0.0334,1.0037,-0.5649,-2.5191,0.8397
22776,0.0493,-0.0132,0.9592,0.5496,-2.8244,0.7328
22786,0.0471,-0.0708,0.9783,1.0534,-2.8244,0.8244
22796,0.0510,-0.1001,1.0540,1.1450,-2.7939,0.7939
22806,0.0581,-0.0227,1.1243,0.1985,-2.5649,0.5344
22816,0.0542,0.0347,1.0547,-0.2595,-2.3969,0.9313
22826,0.0500,0.0020,0.9668,-0.4122,-2.3664,0.6260
22836,0.0496,-0.0784,0.9751,-0.4580,-2.4885,0.6412
22846,0.0547,-0.0955,1.0818,-0.2290,-2.4733,0.4580
22856,0.0532,-0.0120,1.1194,-0.0916,-2.5191,0.3664
22866,0.0544,0.0488,1.0349,-0.2595,-2.3206,-0.0916
22876,0.0520,-0.0203,0.9570,-0.6565,-2.3511,-0.4580
22886,0.0530,-0.1003,1.0303,-1.2061,-2.3359,-0.3969
22899,0.0549,-0.0430,1.1248,-1.3740,-2.2748,-0.1985
22906,0.0547,0.0359,1.0457,-1.2824,-2.2443,-0.0153
22916,0.0469,-0.0369,0.9558,-0.8092,-2.4580,0.2443
22926,0.0525,-0.1101,1.0532,0.3359,-2.5954,0.5191
22936,0.0579,-0.0171,1.1230,0.7939,-2.7023,0.5191
22946,0.0505,0.0288,0.9932,0.6412,-2.4885,1.0382
22956,0.0464,-0.0752,0.9819,0.5038,-2.6412,0.1069
22966,0.0532,-0.0647,1.1216,0.2748,-2.5649,-0.0611
22976,0.0510,0.0466,1.0488,-0.2748,-2.3511,-0.6565
22986,0.0510,-0.0508,0.9583,-0.4885,-2.4427,-0.5954
22996,0.0537,-0.0891,1.1006,-0.1832,-2.5954,-0.2443
23006,0.0552,0.0330,1.0691,-0.2595,-2.4275,0.1069
23016,0.0479,-0.0361,0.9624,-0.5191,-2.3511,0.1832
23026,0.0574,-0.0835,1.1030,-1.0382,-2.4122,0.2290
23036,0.0532,0.0378,1.0583,-1.7252,-2.1527,0.3664
23046,0.0491,-0.0549,0.9626,-1.6641,-2.2748,0.3969
23056,0.0522,-0.0657,1.1238,-0.7939,-2.4275,0.2137
23066,0.0537,0.0447,1.0139,-0.5191,-2.2901,-0.4275
23076,0.0513,-0.0898,1.0002,-0.7176,-2.4733,-0.7023
23086,0.0547,-0.0190,1.1245,-0.6565,-2.3969,-0.5191
23096,0.0500,0.0049,0.9653,-0.6565,-2.3053,-0.5649
23106,0.0552,-0.1003,1.0806,-0.6870,-2.3969,-0.5191
23116,0.0527,0.0396,1.0667,-1.1603,-2.1221,-0.4885
23126,0.0503,-0.0693,0.9807,-2.1679,-2.0916,-0.6870
23136,0.0547,-0.0327,1.1238,-2.7939,-1.9542,-0.4427
23146,0.0503,-0.0786,0.9875,-4.0763,-1.7557,-0.4885
23159,0.0537,-0.0322,1.1162,-4.3969,-1.7405,0.2595
23166,0.0481,-0.0276,0.9609,-4.0458,-1.8321,0.9008
23176,0.0554,-0.1008,1.1089,-2.5496,-2.2290,1.6794
23186,0.0464,0.0234,0.9961,-1.3893,-2.2137,2.3206
23196,0.0554,-0.1140,1.0513,-0.6412,-2.5496,3.0076
23206,0.0483,0.0378,1.0552,-0.5344,-2.5649,3.1908
23216,0.0525,-0.0908,0.9961,-0.7939,-2.5649,3.0076
23226,0.0520,0.0154,1.1001,-0.9618,-2.3511,2.1832
23236,0.0513,-0.0667,0.9763,-2.1221,-2.4122,2.1832
23246,0.0530,-0.0225,1.1194,-1.9084,-2.2748,2.4580
23256,0.0498,-0.0391,0.9714,-1.3740,-2.3206,1.5573
23266,0.0510,-0.0493,1.1233,-1.2977,-2.4427,1.9084
23276,0.0520,-0.0195,0.9648,-0.5496,-2.1679,2.1069
23286,0.0520,-0.0593,1.1206,0.0000,-2.5038,1.6183
23296,0.0520,-0.0044,0.9705,-0.0305,-2.1679,0.7176
23306,0.0513,-0.0583,1.1194,-0.3817,-2.1069,0.2443
23316,0.0505,-0.0002,0.9741,-0.8550,-1.6489,-1.2214
23326,0.0530,-0.0620,1.1174,-0.8702,-1.6489,-2.1221
23336,0.0542,-0.0168,0.9768,-0.5496,-0.9924,-2.8244
23346,0.0513,-0.0596,1.1150,0.1679,-0.8702,-2.5802
23356,0.0530,-0.0400,0.9739,0.5954,-0.4733,-2.4275
23366,0.0483,-0.0322,1.1062,0.5038,-0.3359,-2.1985
23376,0.0500,-0.0659,0.9707,0.2748,-0.2137,-1.9084
23386,0.0461,0.0000,1.0972,0.2443,-0.2901,-1.4504
23396,0.0503,-0.1013,0.9934,-0.1069,-0.2443,-1.1908
23406,0.0378,0.0251,1.0522,-0.3359,-0.7481,-0.3053
23418,0.0408,-0.0442,1.1016,-0.3359,-2.9618,1.5725
23426,0.0376,0.0237,1.0024,-0.1679,-3.5420,1.6794
23436,0.0481,-0.1045,1.0876,0.4580,-4.6565,2.3206
23446,0.0471,-0.0024,0.9690,0.9771,-5.0992,3.0687
23456,0.0493,-0.0347,1.1123,2.0611,-5.6031,2.9008
23466,0.0513,-0.0554,0.9766,1.0840,-5.3435,1.7099
23476,0.0493,0.0259,1.0850,0.8092,-5.1603,0.9924
23486,0.0513,-0.0317,1.1243,0.0458,-4.7328,0.5802
23496,0.0603,-0.0808,1.0034,0.7176,-3.2061,-0.4580
23506,0.0454,0.0356,1.0625,0.3817,-1.7405,0.0153
23516,0.0586,-0.1133,1.0703,-0.3969,-1.7099,-0.3511
23526,0.0527,0.0078,0.9819,-0.1985,-1.3435,0.1069
23536,0.0525,-0.0442,1.1167,-0.0763,-1.0382,0.3053
23546,0.0530,-0.0894,0.9841,-0.4427,-0.7328,0.6870
23556,0.0425,0.0332,1.0400,-0.1985,-1.0992,1.6794
23566,0.0479,-0.1045,1.0852,-0.3053,-2.1069,1.9084
23576,0.0447,-0.0239,0.9580,-1.2214,-2.9466,2.6260
23586,0.0435,0.0022,1.0830,-1.6947,-4.3817,3.2061
23596,0.0537,-0.1167,1.0293,-0.3359,-5.2977,2.6412
23606,0.0569,0.0142,1.0037,0.9313,-5.9389,1.8931
23616,0.0496,-0.0225,1.1279,4.2901,-3.1298,0.9008
23626,0.0525,-0.0828,0.9973,0.7634,-2.9924,0.6412
23636,0.0535,0.0352,1.0173,0.1374,-2.6870,-0.5954
23646,0.0493,-0.0564,1.1128,-0.3206,-2.4122,-0.7176
23656,0.0557,-0.0950,0.9939,-1.2824,-2.4580,-0.4885
23666,0.0449,0.0264,1.0171,-0.6870,-2.0305,0.5954
23679,0.0464,0.0281,1.0227,-0.2901,-2.4427,2.0458
23686,0.0554,-0.0867,0.9880,-0.0763,-2.4733,1.8626
23696,0.0471,0.0344,1.0159,-0.1221,-2.3664,2.2290
23706,0.0503,-0.0620,1.1177,-0.4275,-2.6718,2.4275
23716,0.0537,-0.0859,0.9944,-0.7176,-2.3511,2.2443
23726,0.0449,0.0322,0.9958,-0.4733,-2.3053,1.8626
23736,0.0505,-0.0393,1.1162,-0.1069,-2.7481,1.2061
23746,0.0515,-0.1040,1.0146,0.0153,-2.6107,0.6870
23756,0.0476,0.0059,0.9785,-0.0916,-2.7786,0.9618
23766,0.0491,-0.0129,1.1077,0.4733,-2.7939,1.3435
23776,0.0503,-0.0872,1.0647,0.1832,-2.7634,1.7557
23786,0.0554,-0.0317,0.9702,-1.0992,-2.5802,-1.1756
23796,0.0464,0.0347,1.0562,-2.2443,-1.7710,-0.0458
23806,0.0520,-0.0850,1.1125,-1.9237,-2.4427,-0.8092
23816,0.0493,-0.0952,0.9910,-1.5420,-1.9542,-0.4733
23826,0.0510,-0.1194,1.0303,-0.9313,-2.4427,-0.5191
23836,0.0518,-0.0142,0.9617,-0.0458,-2.3969,-0.7176
23846,0.0505,0.0237,1.0730,0.4733,-2.5038,-0.7176
23856,0.0491,-0.0820,1.1118,0.1527,-2.5344,-0.9771
23866,0.0515,-0.1047,1.0042,-0.1679,-2.4427,-1.0687
23876,0.0525,0.0061,0.9773,0.0305,-2.2901,-0.9160
23886,0.0505,0.0142,1.0840,-0.1679,-2.3359,-1.0992
23896,0.0518,-0.0898,1.1084,-0.5954,-2.1069,-1.1450
23906,0.0566,-0.1055,1.0061,-1.0992,-1.9389,-0.7481
23916,0.0498,-0.0022,0.9724,-1.3282,-1.8473,-0.7786
23926,0.0464,0.0232,1.0654,-1.1756,-1.8473,-0.8092
23936,0.0510,-0.0679,1.1174,-0.0305,-1.5725,-0.8855
23946,0.0552,-0.1160,1.0476,0.7634,-1.2672,-1.2519
23956,0.0515,-0.0530,0.9675,0.6870,-1.1450,-0.9160
23966,0.0417,0.0281,0.9961,0.3206,-1.7252,-0.8702
23976,0.0408,0.0015,1.0886,0.5038,-2.5954,-0.9313
23988,0.0459,-0.0886,1.0994,0.6870,-3.5725,-1.1145
23997,0.0520,-0.1128,1.0227,0.5038,-4.1069,-0.9466
24006,0.0481,-0.0447,0.9656,0.3664,-4.7023,-0.7481
24016,0.0579,0.0210,1.0254,1.8931,-3.7405,-1.3130
24026,0.0388,0.0264,1.0750,1.7557,-2.2748,-1.2824
24036,0.0544,-0.0632,1.1211,-0.6260,-3.3130,-1.3130
24046,0.0496,-0.1145,1.0657,0.0763,-2.2290,-1.4046
24056,0.0483,-0.0891,0.9900,-0.5038,-2.4733,-0.6718
24066,0.0459,-0.0159,0.9697,-0.4885,-2.2595,-0.4275
24076,0.0388,0.0269,1.0132,-0.2137,-2.3969,0.5344
24086,0.0369,0.0344,1.0957,0.1374,-2.7023,0.3359
24096,0.0457,-0.0603,1.1226,-0.8397,-2.3817,-0.9924
24106,0.0439,-0.1121,1.0796,-1.6336,-1.9237,-0.2748
24116,0.0483,-0.1099,1.0059,-0.9160,-2.4733,-0.7939
24126,0.0525,-0.0513,0.9670,-0.5191,-2.6260,-0.5038
24136,0.0464,0.0088,0.9734,-0.2595,-2.5344,-0.6718
24146,0.0435,0.0320,1.0344,0.2290,-2.6870,-0.8550
24156,0.0476,0.0039,1.0981,0.6107,-2.9466,-1.2519
24166,0.0527,-0.0042,0.9675,0.8092,-2.5038,-1.1450
24176,0.0469,0.0310,1.0151,0.7939,-2.4122,-0.8397
24186,0.0427,0.0232,1.0674,0.5954,-2.4580,-0.7939
24196,0.0491,-0.0205,1.1147,0.1679,-2.7023,-0.8397
24210,0.0510,-0.0686,1.1111,0.1221,-2.4733,-0.8244
24216,0.0535,-0.1077,1.0916,0.1679,-2.5802,-0.9618
24228,0.0554,-0.1101,1.0381,0.0916,-2.5496,-0.7939
24236,0.0530,-0.0906,0.9937,-0.2137,-2.3664,-0.6565
24246,0.0522,-0.0566,0.9612,-0.4885,-2.4427,-0.5038
24256,0.0469,-0.0088,0.9658,-0.2290,-2.4427,-0.8550
24266,0.0520,0.0212,0.9915,0.2290,-2.7176,-0.7481
24276,0.0479,0.0317,1.0344,0.4275,-2.7328,-0.6870
24286,0.0496,0.0183,1.0762,0.4733,-2.7939,-0.7176
24296,0.0500,-0.0061,1.1069,0.7634,-2.7023,-0.7481
24306,0.0513,-0.0347,1.1160,0.4733,-2.4580,-0.9313
24316,0.0518,-0.0696,1.1172,-0.1069,-2.5191,-0.7176
24326,0.0496,-0.0889,1.1072,-0.5802,-2.1679,-0.6107
24336,0.0520,-0.1106,1.0786,-1.4046,-2.2595,-0.6870
24346,0.0488,-0.1140,1.0530,-0.8702,-2.4885,-0.7481
24356,0.0549,-0.1116,1.0291,-0.6412,-2.3817,-0.7634
24366,0.0535,-0.0999,1.0105,-1.4351,-2.2443,-0.5802
24376,0.0505,-0.0886,0.9875,-2.3664,-2.1832,-0.5344
24386,0.0515,-0.0745,0.9734,-1.8015,-2.2290,-0.5038
24396,0.0510,-0.0581,0.9656,-0.5649,-2.4275,-0.7481
24406,0.0510,-0.0437,0.9629,0.0916,-2.3664,-0.9466
24416,0.0476,-0.0264,0.9614,0.4733,-2.4275,-0.7634
24426,0.0481,-0.0222,0.9666,0.5191,-2.5649,-0.9160
24436,0.0457,-0.0137,0.9670,0.4275,-2.6412,-0.9618
24446,0.0457,-0.0122,0.9709,0.4427,-2.7481,-0.3511
24456,0.0442,-0.0120,0.9705,0.5649,-2.6260,-0.3206
24469,0.0459,-0.0801,1.1160,0.3969,-2.7023,-0.9466
24476,0.0444,-0.0225,0.9680,0.5496,-2.6565,-0.9008
24486,0.0381,-0.0249,0.9624,1.2214,-2.5496,-1.0534
24496,0.0427,-0.0337,0.9656,0.6718,-2.7481,-0.9771
24506,0.0344,-0.0427,1.1082,0.9466,-2.9618,-0.7328
24516,0.0383,-0.0251,1.1121,1.1908,-2.9618,-0.7939
24526,0.0422,-0.0083,1.0969,0.9466,-2.6870,-0.9008
24536,0.0427,0.0029,1.0881,0.5954,-2.5649,-0.7481
24546,0.0422,0.0112,1.0581,0.4733,-2.6260,-0.5038
24556,0.0483,0.0125,1.0286,0.5496,-2.7023,-0.7786
24566,0.0471,0.0054,0.9971,0.5344,-2.6260,-0.6260
24576,0.0496,-0.0188,0.9746,0.3664,-2.6107,-0.9466
24586,0.0508,-0.0542,0.9661,0.3969,-2.5038,-0.8702
24596,0.0513,-0.0896,0.9734,0.4580,-2.5802,-0.8092
24606,0.0525,-0.1206,1.0081,0.2901,-2.6565,-0.7939
24616,0.0498,-0.1243,1.0432,-0.0153,-2.4275,-1.1908
24626,0.0435,-0.1160,1.0876,0.1221,-2.5496,-1.0687
24636,0.0444,-0.0798,1.1084,0.4885,-2.8550,-0.9924
24646,0.0430,-0.0369,1.1064,0.7023,-2.8244,-0.7634
24656,0.0396,0.0010,1.0715,1.2214,-2.7786,-0.9924
24666,0.0459,0.0134,1.0161,1.3740,-2.7786,-0.7939
24676,0.0435,-0.0173,0.9700,1.3893,-2.6412,-0.8092
24686,0.0510,-0.0693,0.9695,1.3740,-2.5496,-0.3817
24696,0.0513,-0.1055,1.0134,1.0382,-2.6870,-1.5115
24706,0.0469,-0.1050,1.0730,0.5649,-2.6565,-1.6336
24716,0.0459,-0.0601,1.1121,0.3053,-2.6565,-0.6412
24726,0.0444,-0.0112,1.0969,0.5649,-2.6718,-0.7176
24736,0.0444,0.0178,1.0359,0.8092,-2.6260,-0.7176
24746,0.0435,-0.0127,0.9758,0.9618,-2.5191,-1.0534
24756,0.0483,-0.0752,0.9741,1.0229,-2.5496,-1.1908
24766,0.0447,-0.1060,1.0364,0.8244,-2.6260,-1.2061
24776,0.0361,-0.0764,1.1042,0.3511,-2.6412,-1.0687
24786,0.0315,-0.0134,1.1072,0.4122,-2.5802,-1.0992
24796,0.0303,0.0166,1.0361,-0.0611,-2.5191,-0.6260
24806,0.0291,-0.0261,0.9678,-0.0458,-2.4580,-0.7634
24816,0.0310,-0.0938,0.9946,0.4275,-2.5496,-0.7786
24826,0.0264,-0.0984,1.0774,0.1679,-2.5954,-0.7939
24836,0.0205,-0.0432,1.1143,0.1069,-2.7023,-0.7023
24846,0.0291,-0.1008,1.0767,0.8550,-2.7634,-1.0992
24856,0.0254,-0.0339,1.1177,0.7634,-2.7328,-1.2824
24866,0.0227,0.0122,1.0466,0.8855,-2.6412,-1.0840
24876,0.0286,-0.0327,0.9702,0.9618,-2.6718,-0.7481
24886,0.0334,-0.1099,1.0122,0.6718,-2.6565,-0.9313
24896,0.0334,-0.0847,1.1006,0.7634,-2.6718,-1.0687
24906,0.0354,-0.0046,1.0886,1.0229,-2.7023,-1.0382
24916,0.0417,-0.0127,0.9875,0.9924,-2.5954,-0.8244
24926,0.0486,-0.1018,0.9932,0.4122,-2.5496,-0.8550
24936,0.0425,-0.1023,1.0891,0.2901,-2.5802,-0.9313
24946,0.0459,-0.0161,1.0920,0.2290,-2.5802,-0.6870
24956,0.0437,-0.0129,0.9873,0.0000,-2.5344,-0.6870
24966,0.0540,-0.1096,1.0046,0.3359,-2.5496,-0.8397
24976,0.0496,-0.0852,1.1018,0.6412,-2.6412,-0.8092
24988,0.0413,-0.0090,1.0728,0.6412,-2.6412,-0.5802
24996,0.0498,-0.0759,0.9739,0.7634,-2.5802,-0.5191
25006,0.0518,-0.1575,1.0369,0.2901,-2.5038,-1.4809
25016,0.0442,-0.1060,1.1101,0.0916,-2.6107,-1.7252
25026,0.0466,-0.0642,1.0059,0.3511,-2.5802,-1.1145
25036,0.0547,-0.1433,0.9922,0.5649,-2.6107,-0.9313
25046,0.0491,-0.1060,1.1030,0.4885,-2.7023,-0.9313
25056,0.0457,-0.0071,1.0544,0.5954,-2.5954,-0.7023
25066,0.0557,-0.0747,0.9702,0.3359,-2.5344,-0.7176
25076,0.0493,-0.0972,1.0894,-0.3511,-2.5649,-0.7023
25086,0.0430,0.0066,1.0701,0.0458,-2.6260,-0.7176
25096,0.0525,-0.0505,0.9700,0.5038,-2.5191,-0.6412
25106,0.0481,-0.0908,1.0828,0.4427,-2.5344,-0.8244
25116,0.0471,0.0112,1.0669,0.4885,-2.5496,-0.9771
25126,0.0537,-0.0581,0.9695,0.6565,-2.4427,-0.9160
25136,0.0498,-0.0684,1.0945,0.5802,-2.6565,-0.8244
25146,0.0439,0.0190,1.0359,0.4580,-2.5649,-0.9466
25156,0.0559,-0.0859,0.9983,0.3206,-2.5191,-0.6565
25166,0.0474,-0.0371,1.1116,0.2290,-2.5649,-0.9466
25176,0.0461,-0.0107,1.1013,0.1221,-2.5802,-0.6870
25186,0.0498,-0.0300,0.9739,0.2595,-2.4733,-0.6565
25196,0.0518,-0.0818,1.0837,0.0305,-2.6107,-0.7328
25206,0.0427,0.0151,1.0422,0.0611,-2.5344,-0.6412
25216,0.0574,-0.0886,1.0076,0.1985,-2.4885,-0.5496
25226,0.0457,-0.0188,1.1055,0.1374,-2.5954,-0.8702
25238,0.0476,-0.0317,0.9727,0.2595,-2.5344,-0.3206
25251,0.0522,-0.0715,0.9807,0.5191,-2.5649,-0.5191
25256,0.0415,0.0125,1.0181,0.5038,-2.5802,-0.5649
25266,0.0520,-0.0920,1.0293,0.4427,-2.5344,-1.0534
25276,0.0439,0.0012,1.0818,0.3206,-2.5649,-0.9160
25286,0.0488,-0.0610,0.9746,0.3511,-2.5038,-0.7939
25296,0.0405,-0.0422,1.1082,-0.2595,-2.5802,-0.7786
25306,0.0437,-0.0122,0.9802,-0.1069,-2.4427,-0.7023
25316,0.0474,-0.0806,1.0762,0.1832,-2.4733,-0.9618
25326,0.0405,0.0139,1.0273,0.5191,-2.6107,-0.8550
25336,0.0518,-0.0928,1.0271,0.6107,-2.6412,-0.9313
25346,0.0432,0.0046,1.0776,0.5802,-2.7023,-0.9008
25356,0.0513,-0.0720,0.9856,0.7176,-2.6107,-0.8244
25366,0.0422,-0.0278,1.1108,0.7786,-2.6565,-0.8092
25376,0.0457,-0.0300,0.9775,0.5038,-2.6107,-0.8092
25386,0.0469,-0.0620,1.1008,0.1374,-2.5038,-0.7634
25396,0.0474,0.0017,0.9905,0.2748,-2.5344,-0.6565
25406,0.0496,-0.0894,1.0664,0.4580,-2.5954,-1.2366
25416,0.0400,0.0173,1.0435,0.3664,-2.5344,-0.5649
25426,0.0540,-0.0886,1.0225,-0.0153,-2.5344,-1.0382
25436,0.0417,0.0044,1.0786,-0.1832,-2.5496,-0.4427
25446,0.0486,-0.0708,0.9880,0.0000,-2.4427,-1.0076
25456,0.0413,-0.0171,1.1064,-0.1832,-2.4580,-1.2366
25466,0.0491,-0.0488,0.9702,0.1832,-2.4122,-0.8092
25476,0.0454,-0.0476,1.1067,0.5191,-2.6412,-0.7634
25486,0.0454,-0.0134,0.9788,0.4733,-2.5954,-0.9160
25496,0.0471,-0.0732,1.0930,0.1374,-2.6107,-1.3740
25510,0.0400,-0.0134,1.1011,-0.0305,-2.5649,-0.4427
25516,0.0503,-0.0510,0.9731,0.1374,-2.5191,-1.0992
25526,0.0432,-0.0386,1.1091,0.1985,-2.6107,-0.7328
25536,0.0503,-0.0295,0.9741,0.3664,-2.6412,-0.5344
25546,0.0498,-0.0583,1.1035,0.3969,-2.6565,-0.7939
25556,0.0464,-0.0078,0.9880,0.7023,-2.5802,-0.7176
25566,0.0496,-0.0771,1.0830,0.6718,-2.7328,-0.8244
25576,0.0437,0.0061,1.0022,0.9924,-2.5954,-0.8092
25586,0.0483,-0.0845,1.0686,1.0076,-2.6412,-1.0687
25596,0.0415,0.0120,1.0295,0.9466,-2.7023,-1.0076
25606,0.0537,-0.0911,1.0459,0.7328,-2.6107,-0.9008
25616,0.0449,0.0144,1.0474,0.2443,-2.6260,-0.5649
25626,0.0535,-0.0918,1.0312,-0.4733,-2.4122,-0.5802
25636,0.0420,0.0085,1.0635,-0.6107,-2.4580,-0.5038
25646,0.0554,-0.0908,1.0122,-0.0458,-2.5496,-0.8244
25656,0.0427,0.0056,1.0762,0.4580,-2.5649,-0.9008
25666,0.0547,-0.0811,1.0049,0.5038,-2.5649,-0.7023
25676,0.0427,-0.0032,1.0874,0.3359,-2.6412,-0.9160
25686,0.0552,-0.0791,0.9915,0.3511,-2.6260,-0.5649
25696,0.0427,-0.0127,1.0950,0.7023,-2.7481,-0.8550
25706,0.0520,-0.0715,0.9900,1.5420,-2.7786,-0.7939
25716,0.0430,-0.0112,1.1052,0.9771,-2.8397,-0.7023
25726,0.0513,-0.0647,0.9785,-0.2595,-2.4733,-0.4733
25736,0.0432,-0.0264,1.1030,-0.4275,-2.4122,-0.7481
25746,0.0505,-0.0598,0.9800,0.4733,-2.5038,-1.1145
25756,0.0408,-0.0288,1.1077,0.6870,-2.6260,-0.7634
25768,0.0442,0.0078,1.0234,1.0076,-2.6870,-0.7786
25776,0.0425,-0.0305,1.1013,1.1908,-2.7786,-1.3282
25786,0.0491,-0.0530,0.9736,1.7405,-2.7634,-0.5954
25796,0.0454,-0.0339,1.1106,1.9847,-2.9466,-1.5115
25806,0.0488,-0.0483,0.9768,2.0305,-2.7786,-0.6565
25816,0.0452,-0.0337,1.1074,2.0458,-2.8702,-1.1603
25826,0.0515,-0.0447,0.9766,2.4122,-2.9466,-1.4962
25836,0.0442,-0.0300,1.1094,1.7405,-2.7786,-0.6412
25846,0.0427,0.0151,1.0454,0.9771,-2.7939,-1.0840
25856,0.0515,-0.0925,1.0427,0.6718,-2.6718,-1.4351
25866,0.0391,0.0142,1.0464,0.5191,-2.6107,-0.9618
25876,0.0520,-0.0903,1.0408,0.4275,-2.4580,-0.4122
25886,0.0403,0.0144,1.0422,0.5954,-2.6107,-0.2901
25896,0.0503,-0.0913,1.0342,0.8397,-2.6718,-0.5344
25906,0.0398,0.0127,1.0483,0.8855,-2.6107,-0.6565
25916,0.0527,-0.0901,1.0432,0.9008,-2.5191,-0.9160
25926,0.0427,0.0156,1.0432,0.7023,-2.6565,-0.8397
25936,0.0549,-0.0920,1.0425,0.4427,-2.5649,-0.7634
25946,0.0413,0.0137,1.0471,0.2443,-2.5344,-0.4427
25956,0.0481,-0.0933,1.0410,0.3053,-2.4580,-0.3969
25966,0.0459,0.0090,1.0391,0.7634,-2.5802,-0.4733
25976,0.0510,-0.0928,1.0476,1.0687,-2.7176,-0.8702
25986,0.0386,0.0105,1.0386,0.8550,-2.5649,-1.2672
25996,0.0474,-0.0962,1.0476,0.9008,-2.5954,-1.4504
26006,0.0437,0.0107,1.0415,1.2672,-2.8092,-1.0229
26016,0.0508,-0.0962,1.0525,1.2366,-2.6107,-0.7328
26029,0.0430,-0.0325,1.1060,1.4046,-2.7634,-1.2824
26036,0.0525,-0.0942,1.0540,1.4046,-2.7023,-1.5573
26046,0.0476,0.0068,1.0286,1.0992,-2.7023,-1.0840
26056,0.0547,-0.0925,1.0642,1.0534,-2.7634,-0.6718
26066,0.0435,0.0134,1.0317,0.8550,-2.4580,-0.8550
26076,0.0493,-0.0933,1.0583,0.5802,-2.5191,-1.2519
26086,0.0427,0.0081,1.0212,0.5802,-2.6870,-0.9008
26096,0.0496,-0.0925,1.0605,0.8550,-2.5191,-0.7328
26106,0.0449,0.0122,1.0227,0.9771,-2.5038,-1.0076
26116,0.0498,-0.0920,1.0610,0.7481,-2.6870,-1.2519
26126,0.0464,0.0076,1.0195,0.5802,-2.5802,-0.8855
26136,0.0522,-0.0923,1.0708,0.5649,-2.5038,-0.6565
26146,0.0447,0.0056,1.0208,0.6260,-2.6412,-0.8855
26156,0.0505,-0.0898,1.0679,0.5649,-2.5038,-1.2366
26166,0.0466,0.0073,1.0103,0.4733,-2.4885,-0.8855
26176,0.0500,-0.0886,1.0757,0.5038,-2.6565,-0.7176
26186,0.0435,-0.0134,1.0972,0.4427,-2.5038,-1.0534
26196,0.0540,-0.0750,0.9824,0.5191,-2.4427,-0.9008
26206,0.0444,-0.0107,1.0967,0.3359,-2.6412,-0.6718
26216,0.0549,-0.0732,0.9888,0.3664,-2.4733,-0.8244
26226,0.0461,-0.0093,1.0933,0.3511,-2.4427,-1.1603
26236,0.0547,-0.0791,0.9880,0.5038,-2.5496,-0.6412
26247,0.0435,-0.0061,1.0935,0.4427,-2.5954,-0.7481
26256,0.0549,-0.0818,0.9912,0.3969,-2.3817,-1.0840
26266,0.0437,-0.0063,1.0898,0.2137,-2.4885,-0.9160
26276,0.0562,-0.0825,0.9919,0.3206,-2.5649,-0.5191
26286,0.0435,-0.0032,1.0879,0.3664,-2.4885,-1.0076
26296,0.0542,-0.0847,0.9995,0.4580,-2.3817,-0.9771
26306,0.0420,-0.0005,1.0815,0.3053,-2.7023,-0.6412
26316,0.0557,-0.0845,0.9976,0.2901,-2.4580,-0.8702
26326,0.0432,0.0046,1.0791,0.3664,-2.4427,-0.9313
26336,0.0566,-0.0874,1.0042,0.3817,-2.5954,-0.6565
26346,0.0417,0.0085,1.0747,0.2137,-2.5649,-0.9008
26356,0.0552,-0.0884,1.0032,0.2901,-2.3206,-1.0534
26366,0.0432,0.0098,1.0806,0.3053,-2.4275,-0.7634
26376,0.0540,-0.0930,1.0122,0.3206,-2.6565,-0.8397
26386,0.0461,0.0093,1.0708,0.1832,-2.5038,-0.9313
26396,0.0544,-0.0896,1.0115,0.3053,-2.4275,-0.6870
26406,0.0432,0.0081,1.0740,0.2137,-2.6718,-0.9618
26416,0.0530,-0.0923,1.0134,0.2595,-2.4275,-0.7176
26426,0.0420,0.0115,1.0625,0.2748,-2.4427,-1.0534
26436,0.0540,-0.0947,1.0205,0.3053,-2.6565,-0.7786
26446,0.0415,0.0159,1.0664,0.2595,-2.5496,-0.9008
26456,0.0571,-0.0962,1.0251,0.3511,-2.3053,-0.8092
26466,0.0469,0.0117,1.0571,0.1832,-2.6260,-0.9160
26476,0.0547,-0.0947,1.0295,0.3206,-2.4733,-0.7481
26486,0.0447,0.0139,1.0571,0.1985,-2.4733,-0.8244
26496,0.0566,-0.0923,1.0320,0.3206,-2.6107,-0.8550
26506,0.0432,0.0134,1.0510,0.2443,-2.5496,-0.8244
26516,0.0559,-0.0930,1.0405,0.2748,-2.4580,-0.7939
26526,0.0435,-0.0364,1.1062,0.1527,-2.6718,-0.9924
26536,0.0496,-0.0432,0.9768,0.3206,-2.3969,-0.7481
26548,0.0420,-0.0347,1.1086,0.2443,-2.5038,-1.0382
26556,0.0513,-0.0461,0.9749,0.2901,-2.5954,-0.6718
26566,0.0459,-0.0303,1.1028,0.2901,-2.4885,-0.8397
26576,0.0547,-0.0510,0.9785,0.3206,-2.4580,-0.8702
26586,0.0459,-0.0242,1.1118,0.2290,-2.5954,-0.7481
26596,0.0520,-0.0549,0.9766,0.3206,-2.4122,-0.8092
26606,0.0425,-0.0244,1.1057,0.1679,-2.4427,-0.7939
26616,0.0520,-0.0574,0.9795,0.3206,-2.5802,-0.9313
26626,0.0400,-0.0212,1.1023,0.2290,-2.4580,-0.6870
26636,0.0552,-0.0613,0.9795,0.2137,-2.5191,-0.8702
26646,0.0435,-0.0149,1.0981,0.2595,-2.5954,-0.7939
26656,0.0527,-0.0679,0.9810,0.3053,-2.3511,-0.8855
26666,0.0432,-0.0083,1.0994,0.3359,-2.6565,-0.7634
26676,0.0574,-0.0723,0.9844,0.2595,-2.4427,-0.9313
26686,0.0444,-0.0081,1.0945,0.1985,-2.5191,-0.8092
26696,0.0537,-0.0757,0.9885,0.2748,-2.6107,-0.9313
26706,0.0427,-0.0061,1.0952,0.2290,-2.4275,-0.7176
26716,0.0554,-0.0774,0.9917,0.2901,-2.5649,-0.9618
26726,0.0454,0.0015,1.0842,0.1527,-2.5649,-0.7634
26736,0.0557,-0.0837,1.0044,0.3053,-2.3969,-0.9771
26746,0.0444,-0.0002,1.0889,0.1374,-2.7176,-0.6565
26756,0.0552,-0.0845,0.9995,0.3053,-2.4427,-0.8550
26766,0.0444,0.0078,1.0818,0.2137,-2.5191,-0.7023
26776,0.0549,-0.0884,1.0020,0.2595,-2.5802,-0.9771
26786,0.0437,0.0068,1.0723,0.1221,-2.4580,-0.6870
26796,0.0562,-0.0916,1.0083,0.2748,-2.5038,-0.9618
26808,0.0471,-0.0610,1.0959,0.1221,-2.4122,-0.8244
26816,0.0574,-0.0903,1.0129,0.2443,-2.3206,-0.9160
26826,0.0405,0.0103,1.0662,0.2137,-2.5191,-0.5649
26836,0.0522,-0.0940,1.0188,0.2443,-2.5802,-0.9313
26846,0.0442,0.0139,1.0684,0.3206,-2.4580,-0.7176
26856,0.0500,-0.0273,0.9763,0.2137,-2.6107,-0.9466
26866,0.0483,-0.0486,1.1057,0.1985,-2.5038,-0.6565
26876,0.0518,-0.0308,0.9729,0.2290,-2.3206,-1.0229
26886,0.0483,-0.0444,1.1021,0.1527,-2.6260,-0.7786
26896,0.0547,-0.0349,0.9753,0.2901,-2.5802,-0.8855
26906,0.0452,-0.0417,1.1045,0.1069,-2.4580,-0.7481
26916,0.0486,-0.0317,0.9727,0.3664,-2.5191,-0.8092
26926,0.0447,-0.0420,1.1042,0.1527,-2.6412,-1.0076
26936,0.0513,-0.0391,0.9780,0.2443,-2.3969,-0.5191
26946,0.0447,-0.0371,1.1069,0.2290,-2.5649,-0.9160
26956,0.0522,-0.0415,0.9749,0.2137,-2.5802,-0.5496
26966,0.0444,-0.0374,1.1038,0.1221,-2.5191,-0.9924
26976,0.0510,-0.0447,0.9756,0.3511,-2.3053,-0.6870
26986,0.0435,-0.0315,1.1035,0.1985,-2.7023,-0.6870
26996,0.0530,-0.0469,0.9783,0.2901,-2.5038,-0.9771
27006,0.0444,-0.0295,1.1094,0.1832,-2.4580,-0.6870
27016,0.0549,-0.0513,0.9797,0.2443,-2.5802,-1.0229
27026,0.0420,-0.0254,1.1101,0.1527,-2.5344,-0.8397
27036,0.0537,-0.0525,0.9734,0.3817,-2.3817,-0.5496
27046,0.0449,-0.0254,1.1025,0.2443,-2.4733,-1.0076
27056,0.0508,-0.0537,0.9783,0.2137,-2.5344,-0.8550
27068,0.0422,-0.0227,1.1050,0.1221,-2.5954,-0.6260
27076,0.0557,-0.0571,0.9795,0.2443,-2.4122,-0.9313
27086,0.0435,-0.0212,1.1057,0.1832,-2.4733,-1.1298
27096,0.0537,-0.0588,0.9836,0.3206,-2.5344,-0.7328
27106,0.0457,-0.0232,1.1089,0.1527,-2.6412,-0.6870
27116,0.0562,-0.0574,0.9746,0.2137,-2.3664,-0.9313
27126,0.0449,-0.0161,1.1042,0.1221,-2.3969,-1.0076
27136,0.0540,-0.0596,0.9807,0.1679,-2.3206,-0.7786
27146,0.0425,-0.0171,1.1055,0.1374,-2.5649,-0.6107
27156,0.0569,-0.0596,0.9749,0.2901,-2.5649,-0.7786
27166,0.0454,-0.0164,1.1023,0.2595,-2.4885,-0.9924
27176,0.0557,-0.0642,0.9822,0.3053,-2.3359,-0.9924
27186,0.0427,-0.0149,1.1035,0.1985,-2.4885,-0.6412
27196,0.0476,0.0090,1.0071,0.2137,-2.6718,-0.8092
27206,0.0498,-0.0840,1.0706,0.1374,-2.4733,-0.9924
27216,0.0432,0.0107,1.0151,0.1221,-2.4122,-0.8550
27226,0.0530,-0.0818,1.0691,0.1527,-2.3817,-0.7176
27236,0.0471,0.0088,1.0100,0.1221,-2.5496,-0.5038
27246,0.0503,-0.0823,1.0710,0.1527,-2.5954,-0.7176
27257,0.0444,0.0110,1.0146,0.1679,-2.6107,-0.9313
27266,0.0535,-0.0862,1.0691,0.0916,-2.3969,-1.0840
27276,0.0464,0.0095,1.0078,0.1527,-2.3969,-0.9313
27286,0.0520,-0.0835,1.0728,0.1374,-2.4733,-0.8092
27296,0.0466,0.0117,1.0132,0.1985,-2.6260,-0.4733
27306,0.0481,-0.0847,1.0742,0.2290,-2.6107,-0.5496
27316,0.0464,0.0107,1.0120,0.1374,-2.5344,-0.6107
27326,0.0505,-0.0859,1.0745,0.1374,-2.3664,-0.9466
27340,0.0415,-0.0112,1.1052,0.0611,-2.4885,-1.1908
27346,0.0508,-0.0840,1.0735,0.0916,-2.4733,-1.1908
27356,0.0479,0.0090,1.0093,0.1832,-2.6565,-0.9008
27366,0.0532,-0.0830,1.0779,0.1069,-2.6107,-0.7939
27376,0.0454,0.0090,1.0100,0.0763,-2.4122,-0.5954
27386,0.0481,-0.0837,1.0762,0.0916,-2.3511,-0.7176
27396,0.0486,0.0115,1.0051,0.1527,-2.4275,-0.7939
27406,0.0505,-0.0828,1.0752,0.1527,-2.5954,-0.9466
27416,0.0469,0.0071,1.0125,0.2595,-2.6412,-1.0076
27426,0.0498,-0.0820,1.0742,0.2748,-2.3664,-0.9008
27436,0.0466,0.0073,1.0002,0.2748,-2.3664,-0.5649
27446,0.0498,-0.0818,1.0791,0.3053,-2.4122,-0.7328
27456,0.0464,0.0056,1.0073,0.3053,-2.5496,-0.9008
27466,0.0505,-0.0828,1.0757,0.2748,-2.6412,-0.9924
27476,0.0513,0.0085,1.0044,0.2443,-2.4733,-0.6260
27486,0.0542,-0.0801,1.0830,0.1374,-2.3511,-0.6565
27496,0.0496,0.0078,1.0056,0.1679,-2.4427,-0.9618
27506,0.0496,-0.0784,1.0769,0.2443,-2.5496,-0.9771
27516,0.0422,-0.0042,1.0933,0.2748,-2.5954,-0.6718
27526,0.0557,-0.0774,0.9917,0.2595,-2.3969,-0.9771
27536,0.0413,-0.0032,1.0964,0.1069,-2.5038,-0.9924
27546,0.0549,-0.0750,0.9895,0.2137,-2.5954,-0.5496
27556,0.0469,-0.0022,1.0908,0.2290,-2.5649,-0.7939
27566,0.0544,-0.0769,0.9946,0.3053,-2.3969,-1.0076
27576,0.0413,-0.0029,1.0913,0.2443,-2.4275,-0.8092
27586,0.0552,-0.0793,0.9912,0.2748,-2.4427,-0.5802
27598,0.0444,-0.0002,1.0869,0.2137,-2.6565,-0.9771
27606,0.0559,-0.0791,0.9949,0.1985,-2.5344,-0.9924
27616,0.0420,-0.0020,1.0876,0.1527,-2.4427,-0.5802
27626,0.0552,-0.0806,0.9934,0.3359,-2.4580,-0.7176
27636,0.0449,0.0022,1.0872,0.2901,-2.6260,-0.9160
27646,0.0571,-0.0798,0.9973,0.2443,-2.5038,-0.9160
27656,0.0413,-0.0010,1.0850,0.1374,-2.4275,-0.6718
27666,0.0574,-0.0789,0.9958,0.1985,-2.3817,-0.5802
27676,0.0442,0.0017,1.0857,0.1374,-2.5344,-0.8855
27686,0.0544,-0.0808,0.9978,0.1985,-2.5802,-0.9466
27696,0.0437,0.0005,1.0823,0.1069,-2.5954,-1.0534
27706,0.0562,-0.0825,0.9988,0.2137,-2.4733,-0.9008
27716,0.0432,0.0024,1.0864,0.1527,-2.4275,-0.6412
27726,0.0527,-0.0845,0.9995,0.1832,-2.4580,-0.6260
27736,0.0432,0.0007,1.0808,0.1221,-2.5802,-0.7176
27746,0.0547,-0.0854,0.9963,0.1527,-2.5802,-1.0382
27756,0.0471,0.0044,1.0854,0.1527,-2.5038,-1.1756
27766,0.0564,-0.0818,0.9980,0.1679,-2.4122,-0.9924
27776,0.0469,0.0007,1.0820,0.1221,-2.4122,-0.9466
27786,0.0530,-0.0833,0.9929,0.2137,-2.3817,-0.5649
27796,0.0444,0.0029,1.0818,0.0458,-2.4885,-0.4275
27806,0.0562,-0.0842,0.9988,0.2290,-2.5649,-0.4580
27816,0.0427,0.0024,1.0842,0.1832,-2.7176,-0.6870
27826,0.0574,-0.0845,0.9963,0.2443,-2.4427,-0.7786
27836,0.0442,0.0032,1.0837,0.2595,-2.5038,-1.0382
27846,0.0481,-0.0022,0.9927,0.3053,-2.3511,-1.0687
27856,0.0493,-0.0710,1.0891,0.2137,-2.3969,-1.0229
27869,0.0500,-0.0012,0.9866,0.2748,-2.5649,-0.7481
27876,0.0491,-0.0708,1.0898,0.1221,-2.5344,-0.6260
27886,0.0479,-0.0046,0.9895,0.2443,-2.5038,-0.5191
27896,0.0479,-0.0696,1.0901,0.2137,-2.4580,-0.7634
27906,0.0520,-0.0046,0.9866,0.3206,-2.4275,-0.9313
27916,0.0498,-0.0676,1.0962,0.1832,-2.5649,-1.0534
27926,0.0476,-0.0024,0.9932,0.2748,-2.6107,-1.0840
27936,0.0491,-0.0710,1.0889,0.2290,-2.5496,-1.0076
27946,0.0503,-0.0063,0.9875,0.3206,-2.4122,-0.6870
27956,0.0508,-0.0698,1.0925,0.2748,-2.4580,-0.5802
27966,0.0496,-0.0042,0.9932,0.3511,-2.5038,-0.3969
27976,0.0479,-0.0713,1.0898,0.2443,-2.6107,-0.5191
27986,0.0491,-0.0020,0.9839,0.2748,-2.6107,-0.5038
27996,0.0491,-0.0676,1.0955,0.1832,-2.4580,-0.8550
28006,0.0471,-0.0054,0.9910,0.1832,-2.4275,-0.6565
28016,0.0466,-0.0688,1.0862,0.1679,-2.3664,-0.8244
28026,0.0493,-0.0012,0.9851,0.2443,-2.3053,-0.7328
28036,0.0479,-0.0691,1.0872,0.2443,-2.3969,-0.8092
28046,0.0491,-0.0049,0.9880,0.3053,-2.4427,-0.9008
28056,0.0496,-0.0691,1.0864,0.2748,-2.4733,-0.9924
28066,0.0491,-0.0029,0.9863,0.3053,-2.5496,-1.0687
28076,0.0488,-0.0720,1.0923,0.1679,-2.6107,-1.2214
28086,0.0479,-0.0046,0.9958,0.2595,-2.4885,-1.0687
28096,0.0522,-0.0718,1.0862,0.1069,-2.4122,-1.2214
28106,0.0488,-0.0037,0.9868,0.2137,-2.3359,-1.0992
28116,0.0505,-0.0735,1.0896,0.1374,-2.4122,-1.0229
28132,0.0403,0.0039,1.0854,0.1832,-2.5802,-0.6107
28136,0.0498,-0.0708,1.0884,0.2137,-2.5649,-0.5802
28146,0.0508,-0.0029,0.9900,0.2595,-2.5954,-0.4733
28156,0.0491,-0.0723,1.0884,0.1679,-2.4275,-0.6565
28166,0.0481,-0.0044,0.9883,0.1679,-2.3969,-1.0687
28176,0.0542,-0.0857,1.0015,0.1679,-2.3817,-0.8855
28186,0.0444,0.0056,1.0862,0.2443,-2.6260,-0.4885
28196,0.0537,-0.0835,1.0076,0.3359,-2.5344,-0.8092
28206,0.0452,0.0078,1.0784,0.2748,-2.4275,-1.0229
28216,0.0557,-0.0884,1.0032,0.1832,-2.3664,-0.7176
28226,0.0430,0.0068,1.0769,0.1221,-2.5802,-0.7939
28236,0.0530,-0.0901,1.0083,0.3359,-2.5954,-1.0076
28246,0.0422,0.0071,1.0698,0.2595,-2.4885,-0.7328
28256,0.0583,-0.0881,1.0073,0.2595,-2.3969,-0.7634
28269,0.0459,0.0112,1.0757,0.2443,-2.6107,-0.9313
28277,0.0532,-0.0889,1.0134,0.2901,-2.4885,-0.6107
28286,0.0417,0.0110,1.0732,0.1679,-2.4733,-0.9313
28296,0.0559,-0.0891,1.0159,0.2595,-2.5802,-0.8855
28306,0.0439,0.0115,1.0715,0.2443,-2.5802,-0.6718
28316,0.0571,-0.0896,1.0176,0.2290,-2.3817,-0.9771
28326,0.0435,0.0115,1.0635,0.1069,-2.4885,-0.6718
28336,0.0574,-0.0923,1.0261,0.2595,-2.5802,-0.9160
28346,0.0457,0.0090,1.0667,0.2748,-2.5344,-0.9924
28356,0.0571,-0.0906,1.0283,0.2137,-2.3664,-0.5802
28366,0.0408,0.0144,1.0610,0.1679,-2.5191,-0.8702
28376,0.0542,-0.0925,1.0254,0.2748,-2.6412,-0.9313
28388,0.0454,0.0120,1.0640,0.3053,-2.4885,-0.6107
28396,0.0537,-0.0938,1.0312,0.1985,-2.3817,-0.9618
28406,0.0417,0.0134,1.0544,0.1221,-2.5954,-0.7481
28416,0.0557,-0.0955,1.0344,0.2137,-2.6107,-0.6565
28426,0.0457,0.0132,1.0505,0.2290,-2.4122,-1.0534
28436,0.0542,-0.0933,1.0378,0.1832,-2.4580,-0.7328
28446,0.0432,0.0176,1.0479,0.2595,-2.6870,-0.7023
28456,0.0549,-0.0930,1.0325,0.2443,-2.5038,-1.1450
28466,0.0427,0.0144,1.0486,0.1374,-2.4733,-0.7328
28476,0.0547,-0.0935,1.0405,0.2290,-2.6565,-0.8550
28486,0.0439,0.0129,1.0449,0.3206,-2.5344,-0.8550
28496,0.0527,-0.0891,1.0435,0.1527,-2.3664,-0.8244
28506,0.0449,-0.0295,1.1040,0.2137,-2.6565,-0.7786
28516,0.0522,-0.0479,0.9780,0.2901,-2.4122,-0.6107
28526,0.0442,-0.0305,1.1079,0.1069,-2.4580,-0.9924
28536,0.0540,-0.0469,0.9741,0.3206,-2.5802,-0.6412
28546,0.0447,-0.0291,1.1038,0.1221,-2.5802,-0.9618
28556,0.0552,-0.0532,0.9807,0.2137,-2.3359,-0.5954
28566,0.0427,-0.0247,1.1108,0.1832,-2.4885,-1.0229
28576,0.0537,-0.0562,0.9795,0.1679,-2.5038,-0.5954
28586,0.0422,-0.0215,1.1011,0.1221,-2.5191,-0.8092
28596,0.0554,-0.0598,0.9832,0.1985,-2.3969,-0.7481
28606,0.0403,-0.0195,1.1018,0.1985,-2.6565,-1.0229
28616,0.0518,-0.0654,0.9788,0.2748,-2.4122,-0.6412
28626,0.0435,-0.0137,1.1018,0.2290,-2.5191,-1.0076
28636,0.0535,-0.0691,0.9890,0.1985,-2.5649,-0.6260
28649,0.0488,-0.0835,1.0730,0.1679,-2.3511,-0.7176
28656,0.0579,-0.0742,0.9819,0.2595,-2.4427,-0.9008
28666,0.0447,-0.0042,1.0933,0.1069,-2.5954,-0.7481
28676,0.0508,-0.0752,0.9888,0.3664,-2.4122,-1.0382
28686,0.0432,-0.0022,1.0891,0.1527,-2.6718,-0.6870
28696,0.0557,-0.0830,0.9937,0.2443,-2.4122,-0.8855
28706,0.0435,0.0017,1.0903,0.1221,-2.5954,-0.7634
28716,0.0503,-0.0840,1.0049,0.2901,-2.4580,-0.7634
28726,0.0430,0.0093,1.0791,0.1679,-2.5344,-0.9618
28736,0.0547,-0.0852,1.0061,0.2901,-2.5954,-0.7176
28746,0.0430,0.0098,1.0759,0.1527,-2.5802,-0.9313
28756,0.0549,-0.0896,1.0144,0.2901,-2.5954,-0.6260
28766,0.0449,0.0076,1.0671,0.1374,-2.4885,-0.9313
28776,0.0537,-0.0908,1.0139,0.3206,-2.5038,-0.7481
28786,0.0452,0.0110,1.0642,0.1985,-2.5496,-0.9008
28796,0.0554,-0.0913,1.0229,0.2137,-2.3969,-0.7328
28806,0.0447,0.0120,1.0623,0.1832,-2.6260,-0.8244
28816,0.0564,-0.0925,1.0217,0.2443,-2.5344,-0.6870
28826,0.0454,0.0168,1.0613,0.2748,-2.4427,-0.7634
28836,0.0500,-0.0293,0.9756,0.2290,-2.5496,-0.7328
28846,0.0471,-0.0454,1.1045,0.1374,-2.5954,-0.8702
28856,0.0496,-0.0330,0.9751,0.3664,-2.3511,-0.8855
28866,0.0444,-0.0447,1.1028,0.1527,-2.4122,-0.8092
28876,0.0532,-0.0371,0.9797,0.2443,-2.5496,-0.8855
28886,0.0479,-0.0391,1.1086,0.1374,-2.5496,-1.0076
28896,0.0527,-0.0383,0.9746,0.2901,-2.3969,-0.5344
28906,0.0459,-0.0325,1.1077,0.1832,-2.6260,-0.9313
28919,0.0520,-0.0371,0.9736,0.1832,-2.5649,-0.9466
28926,0.0439,-0.0325,1.1055,0.1832,-2.4580,-0.6565
28936,0.0532,-0.0447,0.9797,0.3969,-2.4733,-0.8855
28946,0.0471,-0.0291,1.1067,0.1679,-2.7176,-1.0534
28956,0.0515,-0.0481,0.9792,0.2290,-2.3511,-0.5954
28966,0.0410,-0.0276,1.1086,0.1832,-2.3817,-1.0076
28976,0.0571,-0.0500,0.9768,0.3053,-2.5649,-0.8702
28986,0.0403,-0.0254,1.1047,0.1374,-2.5649,-0.5344
28996,0.0557,-0.0540,0.9817,0.1679,-2.3969,-0.9771
29006,0.0425,-0.0232,1.1062,0.1527,-2.5496,-1.0229
29016,0.0542,-0.0547,0.9749,0.3359,-2.5954,-0.5954
29026,0.0417,-0.0198,1.1025,0.1221,-2.5038,-1.1145
29036,0.0503,-0.0576,0.9822,0.2443,-2.4580,-0.5954
29046,0.0408,-0.0193,1.1033,0.2290,-2.6718,-0.8702
29056,0.0520,-0.0627,0.9783,0.2595,-2.3664,-0.9924
29066,0.0444,-0.0149,1.1018,0.1221,-2.5191,-0.5802
29076,0.0559,-0.0674,0.9863,0.2595,-2.5191,-0.9466
29086,0.0437,-0.0110,1.1060,0.1985,-2.5802,-0.9466
29096,0.0566,-0.0679,0.9819,0.2137,-2.3359,-0.6565
29106,0.0422,-0.0120,1.0986,0.1985,-2.5191,-1.1145
29116,0.0554,-0.0696,0.9844,0.3053,-2.5954,-0.7023
29126,0.0435,-0.0098,1.0974,0.1985,-2.5191,-0.6260
29136,0.0579,-0.0691,0.9836,0.1985,-2.3817,-1.1450
29146,0.0459,-0.0117,1.0991,0.2137,-2.5038,-0.6718
29156,0.0571,-0.0740,0.9905,0.3206,-2.5802,-0.4275
29166,0.0439,-0.0059,1.0974,0.2137,-2.5802,-1.1603
29178,0.0500,0.0046,1.0020,0.2443,-2.4122,-0.6718
29186,0.0508,-0.0781,1.0835,0.1832,-2.5649,-0.7023
29196,0.0476,0.0061,1.0054,0.1832,-2.6565,-0.8702
29206,0.0522,-0.0806,1.0793,0.2595,-2.4275,-0.9618
29216,0.0486,0.0046,0.9944,0.3206,-2.4122,-0.5496
29226,0.0493,-0.0796,1.0859,0.1985,-2.4885,-0.8550
29236,0.0476,0.0032,0.9963,0.2290,-2.5649,-0.9618
29246,0.0496,-0.0776,1.0798,0.2595,-2.5038,-0.5191
29256,0.0496,0.0012,0.9883,0.2748,-2.4427,-0.9466
29266,0.0530,-0.0747,1.0845,0.1527,-2.4275,-0.8855
29277,0.0474,-0.0012,0.9990,0.2748,-2.5802,-0.6260
29286,0.0496,-0.0752,1.0823,0.1679,-2.5496,-1.0992
29296,0.0500,-0.0007,0.9880,0.2290,-2.4275,-0.4580
29306,0.0500,-0.0715,1.0923,0.1679,-2.4733,-1.0229
29316,0.0486,-0.0034,0.9900,0.3053,-2.5802,-0.7176
29326,0.0486,-0.0698,1.0872,0.1221,-2.5038,-0.9313
29336,0.0491,-0.0034,0.9785,0.2748,-2.3664,-0.8092
29346,0.0525,-0.0659,1.0923,0.2290,-2.4885,-0.7176
29356,0.0510,-0.0054,0.9866,0.2137,-2.5802,-1.0229
29366,0.0505,-0.0618,1.0928,0.1832,-2.5038,-0.7176
29376,0.0488,-0.0071,0.9819,0.3053,-2.3511,-0.7786
29386,0.0464,-0.0662,1.0923,0.1679,-2.5038,-1.0840
29396,0.0496,-0.0112,0.9861,0.2595,-2.6718,-0.5038
29406,0.0505,-0.0632,1.0911,0.1527,-2.5191,-0.7634
29416,0.0500,-0.0117,0.9824,0.2595,-2.4580,-1.0992
29426,0.0491,-0.0608,1.0967,0.1832,-2.5344,-0.6412
29438,0.0430,0.0073,1.0784,0.1374,-2.6260,-0.7939
29446,0.0500,-0.0603,1.0955,0.1069,-2.5344,-1.0534
29456,0.0488,-0.0159,0.9802,0.2595,-2.3817,-0.9160
29466,0.0483,-0.0591,1.0981,0.2290,-2.5191,-0.5954
29476,0.0513,-0.0193,0.9817,0.2748,-2.6718,-0.7634
29486,0.0496,-0.0603,1.0977,0.1374,-2.4733,-1.2214
29496,0.0459,0.0107,1.0688,0.1527,-2.3817,-0.4885
29506,0.0549,-0.0889,1.0183,0.2137,-2.5191,-0.6870
29516,0.0447,0.0134,1.0657,0.1832,-2.6412,-1.1450
29526,0.0562,-0.0903,1.0125,0.2901,-2.4885,-0.9313
29536,0.0449,0.0100,1.0659,0.2901,-2.4122,-0.5802
29546,0.0559,-0.0906,1.0208,0.2137,-2.4580,-0.6565
29556,0.0459,0.0139,1.0627,0.1679,-2.6260,-1.0382
29566,0.0544,-0.0889,1.0151,0.1832,-2.5496,-0.9466
29576,0.0457,0.0151,1.0630,0.1832,-2.4580,-0.5954
29586,0.0554,-0.0913,1.0251,0.2901,-2.3359,-0.7939
29596,0.0442,0.0164,1.0564,0.2595,-2.4885,-1.0076
29606,0.0564,-0.0920,1.0229,0.3359,-2.6260,-1.0687
29616,0.0466,0.0122,1.0632,0.2595,-2.5344,-0.6870
29626,0.0569,-0.0928,1.0251,0.1985,-2.4122,-0.4885
29636,0.0474,0.0117,1.0593,0.1221,-2.3206,-0.7939
29646,0.0569,-0.0903,1.0195,0.1985,-2.2901,-1.2214
29656,0.0422,0.0132,1.0591,0.0916,-2.4275,-0.9466
29666,0.0583,-0.0950,1.0244,0.2137,-2.5496,-0.6107
29676,0.0464,0.0132,1.0596,0.1679,-2.6565,-0.4427
29686,0.0544,-0.0933,1.0256,0.2595,-2.4427,-1.0382
29696,0.0454,0.0139,1.0588,0.2901,-2.4427,-1.1145
29709,0.0503,-0.0271,0.9780,0.2290,-2.4733,-0.3359
29716,0.0437,0.0142,1.0552,0.2137,-2.5802,-0.3053
29726,0.0527,-0.0923,1.0261,0.2137,-2.6412,-0.9924
29736,0.0447,0.0146,1.0569,0.1374,-2.5038,-1.1450
29746,0.0537,-0.0945,1.0312,0.2290,-2.4122,-0.8702
29756,0.0432,0.0122,1.0562,0.1832,-2.5954,-0.4580
29766,0.0581,-0.0918,1.0303,0.2595,-2.6107,-0.7328
29776,0.0432,0.0125,1.0537,0.2290,-2.5191,-1.2519
29786,0.0581,-0.0923,1.0339,0.2748,-2.4122,-0.9924
29796,0.0454,0.0154,1.0525,0.2137,-2.4733,-0.5649
29806,0.0544,-0.0908,1.0317,0.1679,-2.5649,-0.6718
29816,0.0442,0.0129,1.0549,0.1679,-2.6718,-1.0382
29826,0.0505,-0.0347,0.9802,0.3206,-2.3511,-0.9008
29836,0.0469,-0.0415,1.1062,0.1985,-2.3969,-0.4885
29846,0.0505,-0.0334,0.9775,0.2901,-2.4885,-0.5344
29856,0.0479,-0.0398,1.1077,0.2443,-2.6718,-0.9771
29866,0.0518,-0.0361,0.9736,0.3206,-2.5649,-0.9008
29876,0.0476,-0.0396,1.1072,0.1527,-2.4580,-0.5649
29886,0.0518,-0.0388,0.9758,0.2595,-2.2901,-0.7023
29896,0.0457,-0.0374,1.1018,0.1679,-2.5496,-0.9618
29906,0.0518,-0.0334,0.9746,0.2901,-2.6260,-0.6107
29916,0.0469,-0.0349,1.1091,0.1985,-2.5191,-0.6412
29926,0.0515,-0.0383,0.9734,0.2443,-2.3359,-0.9618
29936,0.0461,-0.0361,1.1084,0.0458,-2.5191,-0.8397
29946,0.0508,-0.0437,0.9795,0.3206,-2.5649,-0.5038
29956,0.0452,-0.0371,1.1082,0.1985,-2.5649,-1.2214
29969,0.0459,0.0129,1.0420,0.1374,-2.4427,-0.6107
29976,0.0442,-0.0276,1.1094,0.1527,-2.4733,-0.9008
29986,0.0510,-0.0425,0.9763,0.2901,-2.5649,-1.0229
29996,0.0427,-0.0300,1.1091,0.1985,-2.5496,-0.5802
30006,0.0540,-0.0481,0.9739,0.2290,-2.4580,-0.9008
30016,0.0432,-0.0259,1.1023,0.1374,-2.5649,-1.0076
30026,0.0500,-0.0493,0.9753,0.3053,-2.5496,-0.5344
30037,0.0422,-0.0283,1.1106,0.1832,-2.4885,-0.9466
30046,0.0557,-0.0540,0.9766,0.2137,-2.3817,-0.8855
30056,0.0444,-0.0247,1.1077,0.2443,-2.4427,-0.6565
30066,0.0527,-0.0525,0.9846,0.2443,-2.5496,-1.0229
30076,0.0413,-0.0247,1.1018,0.1374,-2.6107,-0.6412
30086,0.0544,-0.0559,0.9785,0.2748,-2.4122,-0.9008
30096,0.0449,-0.0190,1.1067,0.1985,-2.5496,-0.8550
30106,0.0527,-0.0579,0.9836,0.2443,-2.5802,-0.5496
30116,0.0405,-0.0198,1.1060,0.1985,-2.5038,-0.8244
30126,0.0564,-0.0620,0.9785,0.3511,-2.4733,-1.1145
30136,0.0466,-0.0186,1.0974,0.2595,-2.6565,-0.5649
30146,0.0415,0.0132,1.0188,0.1527,-2.3817,-1.1908
30156,0.0510,-0.0857,1.0703,0.1527,-2.4275,-0.6870
30166,0.0491,0.0081,1.0063,0.2595,-2.6412,-0.7176
30176,0.0535,-0.0847,1.0786,0.2290,-2.5038,-1.0687
30186,0.0461,0.0076,1.0127,0.2137,-2.4885,-0.9466
30196,0.0510,-0.0852,1.0715,0.1679,-2.6718,-0.4580
30208,0.0476,0.0068,1.0000,0.2290,-2.5496,-1.0382
30216,0.0503,-0.0806,1.0796,0.2595,-2.4427,-1.1450
30226,0.0459,0.0068,1.0088,0.3359,-2.4427,-0.5344
30236,0.0518,-0.0793,1.0806,0.2137,-2.5496,-0.7176
30246,0.0476,0.0049,0.9956,0.1832,-2.6718,-1.1145
30256,0.0500,-0.0803,1.0854,0.1374,-2.4733,-0.9771
30266,0.0449,0.0049,1.0083,0.2595,-2.4885,-0.4275
30276,0.0520,-0.0784,1.0833,0.2137,-2.6260,-0.7176
30287,0.0503,0.0054,0.9983,0.2901,-2.5496,-1.0992
30296,0.0508,-0.0796,1.0835,0.2137,-2.4733,-1.0076
30306,0.0483,0.0017,0.9993,0.2595,-2.3969,-0.3969
30316,0.0496,-0.0781,1.0818,0.1374,-2.6260,-0.7939
30326,0.0498,-0.0002,0.9897,0.1679,-2.5649,-0.8702
30336,0.0510,-0.0728,1.0930,0.1374,-2.4122,-1.1756
30346,0.0496,0.0022,0.9995,0.1832,-2.3969,-0.5954
30356,0.0503,-0.0767,1.0796,0.3053,-2.5344,-0.4427
30366,0.0488,0.0032,0.9915,0.3206,-2.6565,-0.5038
30376,0.0491,-0.0728,1.0886,0.2137,-2.5038,-1.0534
30386,0.0464,-0.0002,0.9971,0.3053,-2.4275,-1.2366
30396,0.0503,-0.0742,1.0842,0.2901,-2.4122,-1.3130
30406,0.0491,-0.0010,0.9912,0.2290,-2.5191,-0.9160
30416,0.0479,-0.0786,1.0869,0.1985,-2.6565,-0.8397
30426,0.0461,0.0012,1.0002,0.2443,-2.6718,-0.9008
30436,0.0515,-0.0750,1.0857,0.1832,-2.5191,-1.0687
30446,0.0474,0.0032,0.9922,0.3511,-2.4733,-1.0687
30456,0.0498,-0.0813,1.0857,0.2290,-2.3664,-1.1298
30466,0.0457,0.0039,1.0015,0.2748,-2.3969,-1.2366
30480,0.0581,-0.0774,0.9932,0.2748,-2.3511,-1.2519
30486,0.0471,-0.0046,1.0933,0.2290,-2.4733,-0.9771
30496,0.0535,-0.0757,0.9895,0.1985,-2.3969,-0.7939
30506,0.0447,-0.0093,1.1011,0.1221,-2.3969,-0.6412
30516,0.0549,-0.0776,0.9902,0.2901,-2.3817,-0.4733
30526,0.0447,-0.0061,1.0959,0.1679,-2.5649,-0.3969
30536,0.0527,-0.0706,0.9846,0.2595,-2.5191,-0.6107
30546,0.0408,-0.0120,1.1008,0.1527,-2.7328,-1.0229
30556,0.0554,-0.0706,0.9829,0.2290,-2.5496,-1.2672
30566,0.0420,-0.0098,1.0999,0.1527,-2.5802,-1.0992
30576,0.0542,-0.0691,0.9871,0.2901,-2.4733,-0.6870
30586,0.0430,-0.0134,1.1033,0.1527,-2.5038,-0.4885
30596,0.0542,-0.0635,0.9824,0.1985,-2.3817,-0.5191
30606,0.0427,-0.0129,1.1077,0.2137,-2.4733,-0.7328
30616,0.0527,-0.0625,0.9797,0.2595,-2.3817,-0.8702
30626,0.0417,-0.0151,1.1045,0.1679,-2.4427,-1.1603
30636,0.0571,-0.0632,0.9785,0.3206,-2.3511,-1.1145
30646,0.0447,-0.0198,1.1052,0.1221,-2.5038,-0.9008
30656,0.0552,-0.0552,0.9819,0.2137,-2.4275,-0.5191
30666,0.0427,-0.0203,1.1089,0.1832,-2.4580,-0.4122
30676,0.0566,-0.0547,0.9758,0.2137,-2.4427,-0.6870
30686,0.0439,-0.0229,1.1067,0.1832,-2.4122,-1.1450
30696,0.0535,-0.0513,0.9807,0.2443,-2.3511,-1.1603
30706,0.0430,-0.0254,1.1108,0.1221,-2.4580,-0.8550
30716,0.0544,-0.0496,0.9702,0.3511,-2.4122,-0.5038
30726,0.0444,-0.0278,1.1060,0.1221,-2.5649,-0.7023
30738,0.0415,0.0122,1.0415,0.2901,-2.5038,-1.1756
30746,0.0413,-0.0320,1.1106,0.1527,-2.5191,-1.2061
30756,0.0525,-0.0457,0.9736,0.2901,-2.3969,-0.6565
30766,0.0457,-0.0330,1.1072,0.1985,-2.4885,-0.4580
30776,0.0510,-0.0391,0.9758,0.2901,-2.3817,-1.0382
30786,0.0459,-0.0356,1.1113,0.1221,-2.4580,-1.0382
30796,0.0520,-0.0359,0.9768,0.2595,-2.4580,-0.4885
30806,0.0559,-0.0923,1.0376,0.1985,-2.4275,-0.9618
30816,0.0447,0.0154,1.0496,0.2443,-2.4580,-1.2061
30826,0.0547,-0.0920,1.0356,0.2137,-2.4885,-0.6870
30836,0.0444,0.0142,1.0574,0.2901,-2.4580,-0.3664
30846,0.0554,-0.0916,1.0322,0.2443,-2.4427,-0.9008
30856,0.0422,0.0137,1.0559,0.2290,-2.5191,-1.1603
30866,0.0571,-0.0920,1.0254,0.1985,-2.4580,-0.7328
30876,0.0449,0.0137,1.0657,0.2443,-2.5038,-0.5038
30886,0.0569,-0.0908,1.0200,0.2748,-2.4122,-0.4733
30896,0.0422,0.0125,1.0605,0.2290,-2.4733,-0.6870
30906,0.0569,-0.0906,1.0178,0.2290,-2.3969,-1.1603
30916,0.0442,0.0129,1.0740,0.1832,-2.5344,-1.1756
30926,0.0557,-0.0889,1.0146,0.2137,-2.4275,-0.9618
30936,0.0464,0.0085,1.0693,0.2443,-2.5038,-0.6107
30946,0.0569,-0.0896,1.0098,0.3053,-2.4122,-0.4580
30956,0.0447,0.0115,1.0732,0.1527,-2.4733,-0.5649
30966,0.0532,-0.0891,1.0173,0.1679,-2.4427,-0.8702
30976,0.0454,0.0112,1.0745,0.1679,-2.4427,-0.7023
30986,0.0574,-0.0859,1.0056,0.3206,-2.4122,-0.6565
31000,0.0493,-0.0657,1.0964,0.2748,-2.4427,-0.5496
31006,0.0542,-0.0884,1.0059,0.2901,-2.4427,-0.4275
31016,0.0410,0.0098,1.0713,0.1374,-2.5496,-0.4885
31026,0.0547,-0.0884,1.0042,0.1985,-2.5954,-0.5496
31036,0.0427,0.0078,1.0796,0.1221,-2.5954,-0.6107
31046,0.0566,-0.0876,1.0051,0.2137,-2.5649,-0.7634
31056,0.0427,0.0071,1.0803,0.0763,-2.4580,-0.9771
31066,0.0569,-0.0903,1.0049,0.2137,-2.3664,-1.1756
31076,0.0435,0.0085,1.0759,0.1679,-2.5954,-1.1145
31086,0.0530,-0.0876,1.0088,0.2137,-2.6260,-0.7634
31096,0.0405,0.0059,1.0737,0.1679,-2.5496,-0.4733
31106,0.0552,-0.0881,1.0059,0.2443,-2.4427,-0.6718
31116,0.0439,0.0083,1.0750,0.2443,-2.5802,-1.1298
31126,0.0571,-0.0876,1.0088,0.2443,-2.5649,-1.1450
31136,0.0469,-0.0588,1.0920,0.1832,-2.4580,-0.7176
31146,0.0508,-0.0139,0.9797,0.3053,-2.3664,-0.4733
31156,0.0486,-0.0576,1.0957,0.1985,-2.5802,-0.7481
31166,0.0503,-0.0186,0.9822,0.2901,-2.5649,-1.0840
31176,0.0444,-0.0564,1.0923,0.1832,-2.4580,-1.0534
31186,0.0522,-0.0190,0.9812,0.1985,-2.4427,-0.3664
31196,0.0464,-0.0552,1.0979,0.1374,-2.5802,-0.7328
31206,0.0496,-0.0205,0.9814,0.2595,-2.6260,-1.0382
31216,0.0493,-0.0527,1.1006,0.1985,-2.4580,-1.0229
31226,0.0530,-0.0208,0.9802,0.3053,-2.3969,-0.5038
31236,0.0464,-0.0535,1.0981,0.2290,-2.4733,-0.7023
31246,0.0515,-0.0225,0.9805,0.2901,-2.5802,-0.8702
31256,0.0464,-0.0505,1.0942,0.1221,-2.5802,-1.2214
31270,0.0464,0.0125,1.0623,0.1832,-2.4733,-0.5344
31277,0.0474,-0.0525,1.1030,0.1069,-2.3817,-0.7786
31286,0.0488,-0.0242,0.9771,0.2901,-2.4427,-1.1756
31297,0.0479,-0.0464,1.1062,0.2290,-2.5954,-0.8702
31306,0.0505,-0.0220,0.9775,0.2443,-2.5649,-0.6107
31316,0.0466,-0.0493,1.1013,0.1069,-2.4275,-1.0076
31326,0.0525,-0.0239,0.9783,0.2443,-2.4733,-1.0076
31336,0.0459,-0.0479,1.1055,0.2137,-2.6870,-0.5038
31346,0.0500,-0.0281,0.9758,0.2901,-2.4885,-0.7939
31356,0.0459,-0.0464,1.1023,0.1679,-2.4122,-1.1756
31366,0.0515,-0.0269,0.9766,0.2748,-2.5344,-0.4733
31376,0.0471,-0.0425,1.1038,0.1221,-2.5954,-0.7786
31386,0.0544,-0.0320,0.9744,0.2443,-2.5344,-1.1298
31396,0.0491,-0.0415,1.1057,0.1679,-2.4427,-0.8397
31406,0.0530,-0.0317,0.9783,0.2748,-2.3206,-0.4427
31416,0.0461,-0.0432,1.1074,0.1374,-2.5191,-0.8550
31426,0.0542,-0.0320,0.9758,0.1832,-2.5954,-1.2366
31436,0.0469,-0.0422,1.1067,0.0763,-2.6107,-1.0992
31446,0.0515,-0.0315,0.9736,0.2443,-2.4275,-0.6260
31456,0.0452,-0.0417,1.1052,0.1832,-2.4275,-0.5802
31466,0.0457,0.0146,1.0510,0.2595,-2.6565,-1.1145
31476,0.0537,-0.0918,1.0398,0.2595,-2.4885,-1.0229
31486,0.0439,0.0166,1.0513,0.2290,-2.4733,-0.6718
31496,0.0540,-0.0901,1.0398,0.1679,-2.4427,-0.5649
31506,0.0425,0.0127,1.0449,0.1221,-2.6107,-1.0992
31516,0.0537,-0.0908,1.0437,0.2137,-2.5954,-1.0076
31529,0.0422,0.0146,1.0430,0.2748,-2.4733,-0.4427
31536,0.0525,-0.0911,1.0405,0.2748,-2.4122,-0.8397
31546,0.0447,0.0129,1.0410,0.2443,-2.5802,-1.0229
31556,0.0559,-0.0913,1.0422,0.2443,-2.6107,-0.9618
31566,0.0403,0.0144,1.0422,0.1527,-2.4733,-0.5496
31576,0.0532,-0.0906,1.0444,0.1832,-2.5038,-0.7786
31586,0.0442,0.0125,1.0403,0.1985,-2.5344,-1.0382
31596,0.0564,-0.0925,1.0532,0.2595,-2.6260,-0.9466
31606,0.0430,0.0142,1.0408,0.2748,-2.4580,-0.5802
31616,0.0535,-0.0920,1.0496,0.2595,-2.3053,-0.5954
31626,0.0437,0.0129,1.0376,0.2595,-2.4275,-0.9924
31636,0.0544,-0.0933,1.0496,0.1832,-2.4733,-1.2061
31646,0.0447,0.0144,1.0398,0.2443,-2.6412,-0.7634
31656,0.0510,-0.0898,1.0527,0.2290,-2.4885,-0.5496
31666,0.0420,0.0107,1.0308,0.2137,-2.4885,-0.5344
31676,0.0540,-0.0874,1.0527,0.1679,-2.3817,-0.8397
31686,0.0420,0.0117,1.0386,0.1374,-2.5496,-1.0840
31696,0.0532,-0.0916,1.0535,0.1527,-2.5802,-0.9160
31706,0.0459,0.0134,1.0322,0.1527,-2.5954,-0.6718
31716,0.0544,-0.0869,1.0564,0.1527,-2.4122,-0.5649
31726,0.0449,0.0146,1.0325,0.2443,-2.5038,-0.6870
31736,0.0515,-0.0884,1.0566,0.2290,-2.5954,-1.1756
31746,0.0432,0.0112,1.0256,0.2595,-2.6412,-1.0534
31756,0.0537,-0.0889,1.0623,0.3053,-2.4122,-0.8397
31766,0.0439,0.0110,1.0278,0.2901,-2.3664,-0.5191
31778,0.0525,-0.0542,0.9746,0.2901,-2.4275,-0.5191
31786,0.0437,0.0122,1.0266,0.2595,-2.7023,-0.6412
31796,0.0522,-0.0520,0.9802,0.2748,-2.4885,-0.9466
31806,0.0449,-0.0237,1.1082,0.1832,-2.4885,-1.1298
31816,0.0552,-0.0518,0.9751,0.3206,-2.3664,-1.1450
31826,0.0459,-0.0220,1.1025,0.1679,-2.5191,-0.9618
31836,0.0520,-0.0537,0.9780,0.2595,-2.5344,-0.8397
31846,0.0437,-0.0254,1.1079,0.0916,-2.5954,-0.7939
31856,0.0547,-0.0564,0.9714,0.1679,-2.4427,-0.5496
31866,0.0415,-0.0225,1.1025,0.1374,-2.4580,-0.4885
31876,0.0542,-0.0540,0.9795,0.1985,-2.3511,-0.5649
31886,0.0435,-0.0234,1.1084,0.0611,-2.5802,-0.8550
31896,0.0525,-0.0569,0.9746,0.2137,-2.5802,-1.0840
31906,0.0442,-0.0212,1.1040,0.1527,-2.5038,-1.0992
31916,0.0510,-0.0571,0.9810,0.2137,-2.4580,-0.9008
31926,0.0444,-0.0208,1.1086,0.1221,-2.4275,-0.5649
31936,0.0549,-0.0581,0.9766,0.2443,-2.5496,-0.4427
31946,0.0437,-0.0210,1.1033,0.1527,-2.6412,-0.8702
31956,0.0535,-0.0598,0.9861,0.2290,-2.4580,-1.0687
31966,0.0415,-0.0193,1.1069,0.1985,-2.4580,-1.2672
31976,0.0532,-0.0601,0.9790,0.2901,-2.4427,-0.7634
31986,0.0449,-0.0181,1.1001,0.2137,-2.7023,-0.5038
31996,0.0515,-0.0583,0.9800,0.2595,-2.5191,-0.5496
32006,0.0454,-0.0195,1.1050,0.1832,-2.4733,-0.8550
32019,0.0461,0.0122,1.0110,0.2595,-2.3969,-1.1298
32026,0.0437,-0.0171,1.1006,0.2137,-2.4580,-1.1145
32036,0.0530,-0.0591,0.9785,0.3359,-2.5191,-0.7634
32046,0.0408,-0.0183,1.1057,0.2290,-2.5802,-0.5038
32056,0.0547,-0.0620,0.9795,0.2901,-2.4885,-0.3053
32066,0.0437,-0.0176,1.1055,0.2137,-2.4733,-0.5344
32076,0.0552,-0.0640,0.9854,0.3206,-2.4275,-0.7328
32086,0.0425,-0.0186,1.1038,0.1832,-2.6107,-1.0534
32096,0.0552,-0.0649,0.9778,0.3053,-2.5496,-1.1145
32106,0.0425,-0.0149,1.1011,0.1374,-2.5344,-1.1908
32116,0.0532,-0.0625,0.9839,0.2595,-2.3359,-1.1603
32126,0.0503,-0.0842,1.0701,0.1832,-2.4122,-0.9618
32136,0.0488,0.0095,1.0076,0.1832,-2.5496,-0.6260
32146,0.0481,-0.0845,1.0718,0.1527,-2.6412,-0.5496
32156,0.0454,0.0095,1.0137,0.2137,-2.5038,-0.4580
32166,0.0525,-0.0857,1.0701,0.1374,-2.4122,-0.5496
32176,0.0488,0.0103,1.0071,0.1527,-2.5649,-0.7481
32186,0.0522,-0.0815,1.0771,0.1374,-2.6565,-1.0840
32198,0.0452,0.0073,1.0088,0.1985,-2.5496,-1.1298
32206,0.0540,-0.0835,1.0742,0.2290,-2.4580,-1.2214
32216,0.0459,0.0083,1.0022,0.2443,-2.5649,-1.1908
32226,0.0496,-0.0823,1.0781,0.1985,-2.6718,-1.1756
32236,0.0474,0.0061,1.0090,0.2443,-2.5344,-0.9313
32246,0.0503,-0.0820,1.0779,0.1985,-2.4122,-0.7328
32256,0.0515,0.0059,0.9961,0.1985,-2.5649,-0.5038
32266,0.0518,-0.0781,1.0833,0.1679,-2.6260,-0.8397
32276,0.0503,0.0054,1.0049,0.1985,-2.4427,-1.0382
32286,0.0498,-0.0803,1.0791,0.1679,-2.4580,-0.7634
32296,0.0513,0.0042,0.9966,0.2443,-2.5802,-0.6260
32307,0.0505,-0.0762,1.0859,0.2137,-2.5496,-0.9313
32316,0.0496,0.0032,1.0000,0.2901,-2.3969,-1.0382
32326,0.0513,-0.0740,1.0854,0.1527,-2.4275,-0.5649
32336,0.0500,0.0024,0.9912,0.1985,-2.5344,-0.8855
32346,0.0496,-0.0723,1.0886,0.1832,-2.5191,-0.9466
32356,0.0469,-0.0002,0.9929,0.2748,-2.4122,-0.4427
32366,0.0481,-0.0701,1.0886,0.1069,-2.4427,-1.2214
32376,0.0510,-0.0029,0.9866,0.2901,-2.5191,-0.6718
32386,0.0496,-0.0686,1.0957,0.2137,-2.5038,-0.8550
32396,0.0500,-0.0068,0.9873,0.2443,-2.3359,-0.8550
32406,0.0508,-0.0620,1.0894,0.2901,-2.4885,-0.7023
32416,0.0505,-0.0110,0.9766,0.2443,-2.5496,-0.8855
32426,0.0479,-0.0618,1.0945,0.1221,-2.5344,-0.6260
32436,0.0486,-0.0151,0.9829,0.3359,-2.3969,-0.8855
32446,0.0498,-0.0569,1.0991,0.1527,-2.5802,-0.7939
32456,0.0439,0.0110,1.0698,0.2290,-2.4580,-1.0992
32466,0.0537,-0.0913,1.0161,0.2137,-2.5191,-0.6260
32476,0.0435,0.0151,1.0662,0.1985,-2.5649,-0.8550
32492,0.0518,-0.0269,0.9783,0.2748,-2.5038,-0.5191
32498,0.0452,0.0115,1.0613,0.1985,-2.6260,-0.7634
32506,0.0562,-0.0925,1.0288,0.2443,-2.5038,-0.9313
32516,0.0393,0.0134,1.0566,0.2443,-2.5038,-0.6565
32526,0.0549,-0.0920,1.0320,0.1679,-2.5802,-0.9924
32536,0.0444,0.0125,1.0559,0.1832,-2.4733,-0.5649
32546,0.0564,-0.0913,1.0408,0.2443,-2.5038,-0.9771
32556,0.0417,0.0151,1.0454,0.2290,-2.5496,-0.7786
32566,0.0530,-0.0906,1.0488,0.1527,-2.4427,-0.5802
32576,0.0435,0.0146,1.0352,0.2290,-2.6260,-0.9313
32586,0.0537,-0.0886,1.0530,0.1527,-2.4580,-0.7176
32596,0.0417,0.0142,1.0349,0.2290,-2.5802,-1.0840
32606,0.0515,-0.0879,1.0596,0.2137,-2.4122,-0.8244
32616,0.0461,0.0142,1.0247,0.1985,-2.4275,-0.7634
32626,0.0510,-0.0889,1.0703,0.2443,-2.6412,-0.8550
32636,0.0459,0.0068,1.0242,0.1679,-2.4885,-0.6107
32646,0.0515,-0.0857,1.0718,0.1679,-2.5649,-1.0840
32661,0.0410,-0.0132,1.1006,0.1832,-2.4733,-0.8550
32666,0.0510,-0.0876,1.0774,0.1679,-2.5191,-0.7939
32676,0.0449,0.0066,1.0078,0.3053,-2.5802,-1.1450
32686,0.0471,-0.0811,1.0774,0.1679,-2.4427,-0.7023
32696,0.0486,0.0044,0.9963,0.2443,-2.5802,-0.9466
32706,0.0486,-0.0757,1.0867,0.1527,-2.4733,-0.7634
32716,0.0474,0.0024,0.9973,0.2901,-2.5649,-0.8550
32726,0.0491,-0.0759,1.0815,0.1985,-2.5802,-0.9160
32736,0.0496,-0.0029,0.9890,0.3053,-2.4122,-0.8855
32746,0.0491,-0.0654,1.0916,0.1374,-2.5802,-0.7176
32756,0.0479,-0.0090,0.9883,0.2443,-2.5038,-0.7176
32766,0.0493,-0.0652,1.0908,0.1221,-2.4427,-0.9618
32776,0.0520,-0.0090,0.9863,0.3206,-2.6260,-0.5954
32786,0.0476,-0.0615,1.0974,0.1374,-2.5649,-1.0840
32796,0.0437,0.0110,1.0681,0.1527,-2.6107,-0.7176
32806,0.0542,-0.0911,1.0176,0.2290,-2.4733,-0.7176
32816,0.0469,0.0088,1.0664,0.1985,-2.5954,-0.9008
32826,0.0540,-0.0925,1.0276,0.2595,-2.3817,-0.7481
32836,0.0415,0.0144,1.0591,0.2137,-2.5649,-0.5344
32846,0.0554,-0.0923,1.0354,0.1679,-2.4733,-0.9160
32856,0.0459,0.0137,1.0508,0.1374,-2.5038,-0.8397
32866,0.0544,-0.0911,1.0374,0.2595,-2.5954,-0.5802
32876,0.0415,0.0151,1.0425,0.1832,-2.5496,-0.7634
32886,0.0496,-0.0911,1.0439,0.2290,-2.5649,-0.9160
32896,0.0435,0.0129,1.0347,0.2137,-2.4427,-0.7481
32906,0.0544,-0.0869,1.0532,0.2595,-2.5191,-0.6565
32916,0.0447,0.0110,1.0327,0.1985,-2.5496,-0.9313
32926,0.0493,-0.0884,1.0588,0.1832,-2.5802,-0.9618
32939,0.0432,0.0137,1.0249,0.1832,-2.6107,-0.5802
32946,0.0520,-0.0867,1.0657,0.2443,-2.4427,-0.7023
32956,0.0447,0.0117,1.0190,0.2595,-2.6565,-0.8550
32966,0.0500,-0.0854,1.0728,0.2443,-2.5038,-0.9618
32976,0.0481,0.0078,1.0093,0.2137,-2.5496,-0.7634
32986,0.0488,-0.0813,1.0767,0.2137,-2.5038,-0.8244
32996,0.0464,0.0085,1.0046,0.1985,-2.4885,-0.9160
33006,0.0505,-0.0762,1.0803,0.1679,-2.5649,-0.7634
33016,0.0491,0.0027,0.9956,0.3359,-2.4275,-0.6718
33026,0.0493,-0.0754,1.0874,0.1374,-2.5649,-1.0076
33036,0.0459,-0.0007,0.9956,0.2290,-2.5191,-0.7786
33046,0.0498,-0.0757,1.0835,0.2290,-2.5344,-0.6565
33056,0.0474,-0.0029,0.9836,0.1832,-2.5802,-0.8855
33066,0.0513,-0.0706,1.0952,0.1679,-2.4885,-0.6870
33076,0.0500,-0.0056,0.9897,0.2290,-2.4580,-0.8855
33086,0.0503,-0.0659,1.0884,0.1679,-2.6107,-0.9008
33096,0.0505,-0.0095,0.9817,0.2137,-2.4885,-0.7481
33106,0.0479,-0.0593,1.0972,0.1527,-2.6107,-0.9618
33116,0.0491,-0.0137,0.9832,0.3053,-2.5038,-0.5954
33126,0.0574,-0.0901,1.0159,0.2290,-2.5344,-0.6870
33136,0.0459,0.0127,1.0684,0.1985,-2.6260,-0.8550
33146,0.0564,-0.0913,1.0195,0.2748,-2.4580,-0.7481
33156,0.0439,0.0125,1.0654,0.1832,-2.6870,-0.8550
33166,0.0554,-0.0940,1.0264,0.1985,-2.5038,-0.8244
33176,0.0415,0.0125,1.0647,0.1832,-2.5649,-0.8092
33188,0.0547,-0.0925,1.0332,0.2443,-2.5649,-0.9313
33196,0.0415,0.0168,1.0549,0.1832,-2.5038,-0.6107
33206,0.0520,-0.0933,1.0332,0.2137,-2.5191,-1.0382
33216,0.0417,0.0117,1.0508,0.1527,-2.5649,-0.6107
33226,0.0571,-0.0928,1.0398,0.2290,-2.4275,-0.9313
33236,0.0452,0.0134,1.0449,0.2290,-2.6565,-0.9924
33246,0.0544,-0.0923,1.0476,0.1679,-2.5191,-0.6260
33256,0.0408,0.0127,1.0337,0.2443,-2.4733,-0.8550
33266,0.0544,-0.0891,1.0569,0.2595,-2.5649,-0.7939
33276,0.0413,0.0117,1.0383,0.1679,-2.5191,-0.7481
33286,0.0540,-0.0896,1.0579,0.2443,-2.5649,-0.9924
33296,0.0454,0.0107,1.0193,0.1985,-2.4733,-0.9466
33306,0.0513,-0.0896,1.0684,0.1985,-2.6565,-0.8397
33317,0.0415,0.0100,1.0188,0.2595,-2.4885,-0.8550
33326,0.0537,-0.0840,1.0691,0.2137,-2.6107,-1.0534
33336,0.0481,0.0081,1.0024,0.2137,-2.5038,-0.7481
33346,0.0496,-0.0830,1.0845,0.2290,-2.5496,-0.7786
33356,0.0488,0.0044,1.0022,0.2748,-2.5954,-0.9008
33366,0.0500,-0.0781,1.0803,0.2290,-2.4733,-0.9466
33376,0.0503,0.0005,0.9897,0.1679,-2.5496,-0.5496
33386,0.0508,-0.0750,1.0901,0.2137,-2.5496,-0.8855
33396,0.0486,-0.0044,0.9895,0.2748,-2.5802,-0.8244
33406,0.0469,-0.0664,1.0945,0.1527,-2.4275,-0.7939
33416,0.0500,-0.0059,0.9844,0.2290,-2.5496,-0.5802
33426,0.0496,-0.0613,1.0974,0.2901,-2.4427,-1.0382
33436,0.0476,-0.0134,0.9880,0.2443,-2.3969,-0.9008
33446,0.0498,-0.0549,1.0977,0.1069,-2.5802,-0.7939
33458,0.0469,0.0100,1.0667,0.2290,-2.5802,-0.8702
33466,0.0554,-0.0925,1.0244,0.2443,-2.5496,-0.5954
33476,0.0430,0.0127,1.0596,0.2443,-2.5496,-0.7176
33486,0.0569,-0.0908,1.0273,0.1985,-2.5496,-0.8397
33496,0.0435,0.0129,1.0498,0.1527,-2.5344,-0.9160
33506,0.0564,-0.0920,1.0425,0.2443,-2.5496,-0.9618
33516,0.0422,0.0166,1.0449,0.1832,-2.5038,-0.7786
33526,0.0510,-0.0925,1.0493,0.2137,-2.5191,-0.9160
33536,0.0442,0.0112,1.0344,0.1832,-2.4580,-0.7328
33546,0.0549,-0.0908,1.0574,0.2443,-2.5496,-0.7786
33556,0.0439,0.0132,1.0273,0.2290,-2.5496,-0.6107
33566,0.0540,-0.0852,1.0598,0.2595,-2.5802,-0.7176
33576,0.0488,0.0090,1.0095,0.2443,-2.5038,-0.8092
33586,0.0515,-0.0862,1.0742,0.1832,-2.5954,-0.9771
33596,0.0447,0.0081,1.0129,0.1985,-2.4427,-0.8397
33606,0.0486,-0.0771,1.0781,0.1679,-2.5649,-0.9924
33616,0.0496,0.0034,0.9919,0.2290,-2.5038,-0.8397
33626,0.0474,-0.0764,1.0862,0.1832,-2.5954,-0.8092
33636,0.0481,-0.0029,0.9919,0.2137,-2.5649,-0.7328
33646,0.0496,-0.0657,1.0896,0.1985,-2.5344,-0.7481
33656,0.0500,-0.0085,0.9856,0.2443,-2.5496,-0.6412
33666,0.0488,-0.0654,1.0994,0.2290,-2.5496,-0.8855
33676,0.0508,-0.0149,0.9871,0.2748,-2.5038,-0.8092
33686,0.0469,-0.0549,1.1001,0.1985,-2.5344,-0.9618
33696,0.0498,-0.0234,0.9753,0.3053,-2.5496,-0.8397
33706,0.0476,-0.0503,1.1021,0.2137,-2.4733,-0.9008
33716,0.0505,-0.0278,0.9814,0.2595,-2.4885,-0.7023
33729,0.0537,-0.0916,1.0334,0.1832,-2.4733,-1.0534
33736,0.0515,-0.0381,0.9731,0.2290,-2.5496,-0.6107
33746,0.0432,-0.0344,1.1072,0.2137,-2.5191,-0.8855
33756,0.0522,-0.0435,0.9763,0.2595,-2.5954,-0.9160
33766,0.0420,-0.0256,1.1082,0.1679,-2.4885,-0.9618
33776,0.0535,-0.0527,0.9712,0.2901,-2.5802,-0.8244
33786,0.0508,-0.0884,1.0654,0.2595,-2.4275,-0.9313
33796,0.0452,0.0105,1.0190,0.2595,-2.5344,-0.8702
33806,0.0520,-0.0828,1.0728,0.1832,-2.4427,-0.8702
33816,0.0500,0.0078,1.0024,0.2443,-2.5802,-0.6107
33826,0.0491,-0.0796,1.0869,0.1679,-2.4122,-0.7023
33836,0.0474,0.0000,1.0012,0.2748,-2.5954,-0.7176
33846,0.0503,-0.0747,1.0840,0.1832,-2.5649,-0.9313
33856,0.0500,-0.0034,0.9839,0.2595,-2.4885,-0.8550
33866,0.0505,-0.0701,1.0940,0.1527,-2.6107,-0.8855
33876,0.0464,-0.0112,0.9871,0.2595,-2.4427,-0.6260
33886,0.0505,-0.0603,1.0962,0.1527,-2.5802,-0.6870
33896,0.0459,-0.0144,0.9795,0.2595,-2.4885,-0.8855
33906,0.0496,-0.0535,1.1013,0.1069,-2.5802,-0.9313
33916,0.0549,-0.0217,0.9797,0.1985,-2.4733,-0.8550
33926,0.0471,-0.0454,1.0989,0.2443,-2.5802,-0.8397
33936,0.0513,-0.0276,0.9749,0.2748,-2.4733,-0.7481
33946,0.0457,-0.0449,1.1045,0.1374,-2.5802,-0.9466
33956,0.0522,-0.0369,0.9722,0.2901,-2.5038,-0.9924
33966,0.0420,-0.0369,1.1082,0.1985,-2.6107,-1.0076
33976,0.0544,-0.0444,0.9771,0.2290,-2.4885,-0.5344
33989,0.0552,-0.0920,1.0505,0.1527,-2.5802,-0.8550
33996,0.0525,-0.0486,0.9773,0.2748,-2.4733,-0.8855
34006,0.0425,-0.0215,1.1086,0.1985,-2.5954,-0.9466
34016,0.0530,-0.0574,0.9763,0.2290,-2.5344,-0.7939
34026,0.0466,-0.0203,1.1042,0.1374,-2.5649,-0.7634
34036,0.0525,-0.0652,0.9883,0.2290,-2.5191,-0.7176
34046,0.0408,-0.0132,1.1030,0.1832,-2.5954,-0.8244
34056,0.0588,-0.0686,0.9854,0.2137,-2.4885,-0.6718
34066,0.0444,-0.0054,1.0898,0.2137,-2.5191,-0.8702
34076,0.0549,-0.0757,0.9983,0.2748,-2.5496,-0.9008
34086,0.0417,-0.0039,1.0894,0.2290,-2.5344,-0.9618
34096,0.0549,-0.0823,1.0010,0.2901,-2.4885,-0.7939
34106,0.0442,0.0051,1.0811,0.1985,-2.4885,-0.6870
34116,0.0525,-0.0859,1.0105,0.2290,-2.5496,-0.6412
34126,0.0464,-0.0571,1.0969,0.1985,-2.6260,-0.7328
34136,0.0493,-0.0198,0.9744,0.2443,-2.4580,-0.7023
34146,0.0491,-0.0537,1.0996,0.1832,-2.6107,-1.0534
34156,0.0486,-0.0264,0.9792,0.3206,-2.4580,-0.8855
34166,0.0437,-0.0439,1.1030,0.1679,-2.6260,-0.8244
34176,0.0540,-0.0327,0.9763,0.2443,-2.5191,-0.6412
34186,0.0483,-0.0386,1.1074,0.1679,-2.5649,-1.0076
34196,0.0510,-0.0383,0.9758,0.2443,-2.5191,-0.9313
34206,0.0425,-0.0320,1.1060,0.1832,-2.5802,-0.7481
34216,0.0544,-0.0464,0.9773,0.2748,-2.3359,-0.7023
34226,0.0437,-0.0300,1.1084,0.1985,-2.6565,-1.0687
34236,0.0530,-0.0540,0.9771,0.2748,-2.4427,-0.6565
34246,0.0422,-0.0210,1.1121,0.1221,-2.6260,-0.7023
34259,0.0549,-0.0583,0.9783,0.2595,-2.5038,-0.8244
34266,0.0454,-0.0168,1.1023,0.2137,-2.6260,-0.8855
34276,0.0522,-0.0618,0.9854,0.1832,-2.5344,-0.5649
34286,0.0400,-0.0161,1.1021,0.1985,-2.6107,-0.9160
34296,0.0549,-0.0703,0.9797,0.3359,-2.4885,-0.8702
34306,0.0447,-0.0110,1.0994,0.1679,-2.5344,-0.7328
34316,0.0522,-0.0754,0.9919,0.2290,-2.5954,-0.8244
34327,0.0408,-0.0051,1.0989,0.1832,-2.4275,-1.0687
34336,0.0583,-0.0791,0.9939,0.1985,-2.5649,-0.7023
34346,0.0437,-0.0015,1.0894,0.1985,-2.5038,-0.7481
34356,0.0547,-0.0837,1.0015,0.2595,-2.5191,-0.9008
34366,0.0457,0.0056,1.0840,0.1221,-2.5802,-0.9618
34376,0.0540,-0.0854,1.0012,0.2443,-2.5038,-0.7634
34386,0.0437,0.0105,1.0789,0.2137,-2.5649,-0.7939
34396,0.0547,-0.0903,1.0151,0.1832,-2.5038,-1.0687
34406,0.0454,0.0117,1.0698,0.1679,-2.6260,-0.7023
34416,0.0530,-0.0906,1.0144,0.2443,-2.4275,-0.7023
34426,0.0447,0.0105,1.0686,0.2290,-2.6260,-0.9771
34436,0.0542,-0.0950,1.0261,0.2901,-2.4733,-0.8550
34446,0.0427,0.0168,1.0593,0.1679,-2.5649,-0.6412
34456,0.0525,-0.0339,0.9773,0.2595,-2.4580,-0.6718
34466,0.0466,-0.0410,1.1077,0.1679,-2.6107,-1.0534
34476,0.0554,-0.0381,0.9810,0.2595,-2.3969,-0.8092
34486,0.0430,-0.0310,1.1064,0.1374,-2.5954,-0.7481
34496,0.0552,-0.0452,0.9763,0.2443,-2.5038,-0.8855
34506,0.0454,-0.0310,1.1057,0.1985,-2.4733,-0.8550
34519,0.0532,-0.0488,0.9827,0.2443,-2.5649,-0.5344
34526,0.0430,-0.0215,1.1089,0.1221,-2.5496,-0.9466
34536,0.0547,-0.0542,0.9805,0.2137,-2.5496,-0.8244
34546,0.0430,-0.0200,1.0996,0.1832,-2.5496,-0.7939
34556,0.0542,-0.0625,0.9846,0.3053,-2.5496,-1.0992
34566,0.0410,-0.0139,1.0994,0.1221,-2.4427,-0.6870
34576,0.0525,-0.0679,0.9832,0.2748,-2.5649,-0.7023
34586,0.0425,-0.0076,1.0981,0.1679,-2.4733,-0.9466
34596,0.0540,-0.0767,0.9937,0.1679,-2.5649,-0.5496
34606,0.0405,-0.0044,1.0916,0.1985,-2.5344,-0.8397
34616,0.0537,-0.0791,0.9919,0.2290,-2.5496,-0.9618
34626,0.0425,-0.0022,1.0845,0.1679,-2.5802,-0.7328
34636,0.0547,-0.0823,1.0039,0.2595,-2.4580,-0.8702
34646,0.0415,0.0051,1.0811,0.1985,-2.5649,-1.0229
34656,0.0554,-0.0862,1.0051,0.1679,-2.4122,-0.7786
34666,0.0435,0.0066,1.0713,0.2290,-2.5649,-0.8244
34676,0.0532,-0.0898,1.0154,0.2443,-2.3817,-0.9924
34686,0.0420,0.0103,1.0652,0.1679,-2.6565,-0.4733
34696,0.0571,-0.0935,1.0176,0.2290,-2.5191,-0.9466
34706,0.0435,0.0103,1.0693,0.1679,-2.5649,-1.0076
34716,0.0554,-0.0935,1.0286,0.2595,-2.5344,-0.6107
34726,0.0457,0.0144,1.0559,0.2595,-2.5954,-0.9008
34736,0.0562,-0.0945,1.0317,0.2595,-2.5649,-1.0076
34746,0.0449,0.0105,1.0500,0.2901,-2.4885,-0.6412
34756,0.0554,-0.0938,1.0405,0.2901,-2.5496,-0.9160
34766,0.0435,0.0139,1.0410,0.1832,-2.4733,-1.0076
34778,0.0513,-0.0430,0.9775,0.2901,-2.5802,-0.9008
34786,0.0439,0.0115,1.0334,0.1985,-2.5191,-0.6870
34796,0.0522,-0.0525,0.9758,0.2137,-2.5649,-0.6412
34806,0.0405,-0.0220,1.1052,0.1527,-2.5496,-0.7939
34816,0.0537,-0.0576,0.9724,0.2290,-2.5649,-0.8855
34826,0.0461,-0.0176,1.1021,0.1527,-2.4733,-0.9008
34836,0.0557,-0.0669,0.9832,0.2748,-2.5344,-0.6412
34846,0.0415,-0.0146,1.0984,0.1679,-2.4885,-0.8855
34856,0.0576,-0.0720,0.9873,0.2443,-2.5344,-0.8855
34866,0.0447,-0.0090,1.0945,0.1679,-2.5954,-0.6565
34876,0.0508,-0.0764,0.9922,0.2595,-2.5344,-0.8397
34886,0.0432,-0.0061,1.0881,0.1832,-2.5344,-1.0534
34896,0.0566,-0.0789,0.9944,0.2137,-2.5038,-0.6412
34906,0.0422,0.0012,1.0837,0.2595,-2.5802,-0.7481
34916,0.0571,-0.0852,1.0066,0.3053,-2.5191,-1.0229
34926,0.0432,0.0076,1.0823,0.1527,-2.5802,-0.7786
34936,0.0559,-0.0869,1.0083,0.2901,-2.3969,-0.6412
34946,0.0461,0.0068,1.0725,0.1679,-2.5954,-1.0229
34956,0.0559,-0.0911,1.0122,0.2443,-2.4733,-0.5344
34966,0.0417,0.0110,1.0693,0.2595,-2.6412,-0.7176
34976,0.0552,-0.0918,1.0168,0.2595,-2.4733,-0.9771
34986,0.0454,0.0115,1.0620,0.2137,-2.5344,-0.8702
34996,0.0574,-0.0928,1.0288,0.2901,-2.5802,-0.5802
35006,0.0454,0.0134,1.0552,0.2595,-2.5344,-0.8244
35016,0.0564,-0.0920,1.0356,0.2137,-2.5802,-0.9466
35026,0.0422,0.0117,1.0500,0.1679,-2.4885,-0.7634
35045,0.0466,0.0125,1.0444,0.2748,-2.5191,-0.8702
35048,0.0461,-0.0361,1.1094,0.2290,-2.5344,-0.6107
35056,0.0554,-0.0930,1.0444,0.2443,-2.5344,-0.9160
35066,0.0471,0.0127,1.0386,0.2443,-2.5649,-0.6565
35076,0.0557,-0.0923,1.0544,0.2748,-2.4580,-1.0687
35086,0.0447,0.0139,1.0366,0.2137,-2.5496,-0.6412
35096,0.0520,-0.0891,1.0620,0.2595,-2.4580,-0.6565
35106,0.0461,0.0137,1.0229,0.2290,-2.5038,-0.9466
35116,0.0552,-0.0896,1.0659,0.1985,-2.5954,-0.6565
35126,0.0466,0.0103,1.0225,0.1527,-2.4733,-0.7939
35136,0.0559,-0.0662,0.9788,0.2290,-2.4885,-0.9008
35146,0.0417,-0.0129,1.1040,0.1679,-2.5038,-0.8092
35156,0.0542,-0.0701,0.9893,0.3359,-2.6107,-0.5802
35166,0.0430,-0.0081,1.0986,0.1832,-2.5038,-0.9771
35176,0.0552,-0.0723,0.9854,0.2901,-2.4733,-0.7023
35186,0.0452,-0.0056,1.0916,0.2137,-2.5802,-0.5954
35196,0.0559,-0.0784,0.9946,0.2290,-2.5038,-0.9618
35206,0.0415,-0.0024,1.0862,0.1679,-2.6260,-0.8244
35216,0.0547,-0.0774,0.9944,0.2443,-2.4122,-0.6718
35226,0.0439,0.0027,1.0879,0.1527,-2.6260,-0.9313
35236,0.0530,-0.0842,1.0063,0.2290,-2.5344,-0.7634
35246,0.0410,0.0054,1.0811,0.2137,-2.6107,-0.5649
35256,0.0540,-0.0879,1.0117,0.2290,-2.5344,-0.8702
35266,0.0415,0.0054,1.0745,0.1527,-2.4275,-0.9466
35276,0.0542,-0.0928,1.0139,0.2290,-2.6260,-0.9924
35288,0.0447,0.0103,1.0642,0.1832,-2.5038,-0.8397
35296,0.0525,-0.0889,1.0217,0.2290,-2.5954,-0.9618
35306,0.0444,0.0117,1.0554,0.2748,-2.5191,-0.9466
35316,0.0547,-0.0940,1.0315,0.2137,-2.4885,-0.6107
35326,0.0439,0.0127,1.0500,0.1985,-2.5344,-0.5496
35337,0.0540,-0.0933,1.0491,0.2443,-2.5649,-0.7634
35346,0.0427,0.0107,1.0369,0.1985,-2.4733,-1.0229
35356,0.0535,-0.0874,1.0542,0.1679,-2.5496,-0.8092
35366,0.0442,0.0139,1.0261,0.2901,-2.6718,-0.5649
35376,0.0527,-0.0854,1.0693,0.1679,-2.5496,-0.8855
35386,0.0464,0.0115,1.0095,0.1832,-2.5649,-0.7634
35396,0.0515,-0.0811,1.0759,0.2137,-2.5344,-0.9771
35406,0.0471,0.0066,1.0046,0.2290,-2.5344,-0.9160
35416,0.0476,-0.0759,1.0847,0.1985,-2.5802,-0.8092
35426,0.0508,-0.0051,0.9883,0.2137,-2.5649,-0.8092
35436,0.0493,-0.0681,1.0955,0.1985,-2.4733,-0.6412
35446,0.0479,-0.0117,0.9868,0.2290,-2.5191,-0.7634
35456,0.0479,-0.0552,1.0991,0.0916,-2.5649,-1.0382
35466,0.0449,0.0120,1.0615,0.1679,-2.5191,-0.7481
35476,0.0530,-0.0903,1.0327,0.2595,-2.3817,-0.8855
35486,0.0430,0.0156,1.0486,0.2595,-2.5038,-0.7176
35496,0.0515,-0.0908,1.0479,0.2137,-2.5038,-0.8244
35506,0.0442,0.0134,1.0364,0.2443,-2.4885,-0.7176
35516,0.0552,-0.0930,1.0601,0.2595,-2.5496,-0.9313
35526,0.0454,0.0103,1.0229,0.1832,-2.5649,-0.8550
35536,0.0491,-0.0833,1.0737,0.2137,-2.6260,-0.6718
35546,0.0479,0.0054,0.9919,0.2748,-2.4885,-0.7328
35559,0.0493,-0.0757,1.0876,0.2137,-2.5649,-0.9618
35566,0.0488,-0.0054,0.9893,0.2290,-2.6107,-0.5954
35576,0.0486,-0.0640,1.0930,0.1832,-2.5954,-0.8702
35586,0.0488,-0.0149,0.9761,0.2443,-2.6107,-0.8550
35596,0.0471,-0.0522,1.0986,0.1679,-2.6412,-0.8855
35606,0.0515,-0.0303,0.9768,0.2443,-2.5649,-0.7328
35616,0.0471,-0.0381,1.1050,0.1221,-2.5496,-0.7786
35626,0.0527,-0.0439,0.9761,0.2595,-2.4580,-0.8550
35636,0.0452,-0.0298,1.1003,0.2137,-2.6260,-0.8550
35646,0.0547,-0.0564,0.9805,0.2901,-2.6107,-0.9008
35690,0.0496,0.0027,0.9946,0.1985,-2.5496,-0.7634
35696,0.0420,-0.0005,1.0889,0.1374,-2.6260,-0.8855
35706,0.0581,-0.0813,1.0012,0.2595,-2.5191,-0.8855
35716,0.0435,0.0078,1.0767,0.1985,-2.5038,-0.7634
35726,0.0564,-0.0925,1.0154,0.2748,-2.3817,-0.7023
35736,0.0469,0.0139,1.0610,0.2595,-2.5191,-0.8550
35746,0.0569,-0.0906,1.0286,0.2748,-2.5649,-0.7786
35756,0.0420,0.0129,1.0422,0.2595,-2.6107,-0.8244
35766,0.0554,-0.0908,1.0505,0.2443,-2.5344,-0.8244
35776,0.0425,0.0132,1.0334,0.2443,-2.3969,-0.8244
35786,0.0513,-0.0842,1.0571,0.2443,-2.4733,-0.8092
35796,0.0483,0.0095,1.0127,0.2595,-2.5802,-0.7328
35806,0.0535,-0.0725,0.9919,0.2748,-2.6870,-0.7786
35816,0.0444,-0.0027,1.0911,0.1374,-2.6565,-0.8244
35826,0.0532,-0.0793,0.9954,0.2595,-2.5344,-0.8244
35836,0.0430,0.0046,1.0837,0.1527,-2.5649,-0.7634
35850,0.0564,-0.0874,1.0107,0.2595,-2.5191,-0.8702
35856,0.0442,0.0117,1.0664,0.1527,-2.5649,-0.8397
35866,0.0542,-0.0918,1.0215,0.2137,-2.4733,-1.0229
35876,0.0432,0.0125,1.0576,0.1374,-2.5649,-0.8702
35886,0.0559,-0.0920,1.0376,0.1985,-2.5038,-0.8855
35896,0.0432,0.0146,1.0452,0.1832,-2.5649,-0.6870
35906,0.0537,-0.0896,1.0457,0.1985,-2.5649,-0.7939
35916,0.0432,0.0134,1.0242,0.2748,-2.6565,-0.9008
35926,0.0535,-0.0891,1.0630,0.2443,-2.6260,-0.8702
35936,0.0447,0.0103,1.0186,0.2137,-2.6260,-0.6718
35946,0.0510,-0.0835,1.0691,0.2137,-2.6107,-0.8397
35956,0.0476,0.0068,1.0020,0.2290,-2.5954,-0.8855
35966,0.0520,-0.0815,1.0847,0.2290,-2.4122,-0.7634
35976,0.0471,0.0007,0.9980,0.2748,-2.5649,-0.8092
35986,0.0483,-0.0679,1.0876,0.1679,-2.5802,-0.8397
35996,0.0486,-0.0073,0.9824,0.2443,-2.5649,-0.7634
36006,0.0459,-0.0601,1.0955,0.1832,-2.6412,-0.9313
36016,0.0520,-0.0195,0.9851,0.1985,-2.6260,-0.6870
36026,0.0466,-0.0500,1.1035,0.1985,-2.7023,-0.9618
36036,0.0522,-0.0300,0.9788,0.2901,-2.5954,-0.5802
36046,0.0442,-0.0381,1.1064,0.2290,-2.5802,-0.7634
36056,0.0503,-0.0427,0.9766,0.3053,-2.5344,-0.7786
36066,0.0437,-0.0249,1.1099,0.2137,-2.6260,-0.8092
36076,0.0513,-0.0547,0.9758,0.2443,-2.4427,-0.8702
36086,0.0422,-0.0183,1.1001,0.1527,-2.5649,-0.8702
36096,0.0554,-0.0674,0.9856,0.2595,-2.5038,-0.8092
36108,0.0500,-0.0747,1.0833,0.1985,-2.5344,-0.8244
36116,0.0542,-0.0750,0.9871,0.2290,-2.4427,-0.8702
36126,0.0457,0.0022,1.0815,0.1221,-2.4275,-0.8397
36136,0.0466,-0.0129,0.9915,0.2901,-2.4580,-0.8397
36146,0.0486,-0.0605,1.0969,0.1985,-2.5344,-0.7939
36156,0.0496,-0.0242,0.9751,0.2748,-2.5344,-0.8244
36166,0.0483,-0.0496,1.1023,0.1679,-2.5344,-0.7786
36176,0.0520,-0.0332,0.9778,0.2595,-2.4733,-0.8855
36186,0.0486,-0.0364,1.1040,0.1832,-2.5954,-0.8092
36196,0.0549,-0.0430,0.9734,0.2595,-2.5191,-0.7481
36206,0.0447,-0.0303,1.1040,0.1527,-2.5802,-0.8244
36216,0.0510,-0.0515,0.9783,0.2901,-2.5496,-0.9313
36226,0.0437,-0.0193,1.1050,0.1679,-2.6260,-0.7939
36236,0.0579,-0.0613,0.9771,0.2443,-2.5496,-0.7786
36246,0.0425,-0.0103,1.0955,0.1679,-2.6107,-0.7939
36256,0.0520,-0.0754,0.9932,0.2748,-2.5954,-0.8397
36266,0.0422,-0.0029,1.0918,0.1985,-2.5191,-0.8550
36276,0.0552,-0.0776,0.9968,0.3053,-2.4580,-0.8855
36286,0.0437,0.0046,1.0852,0.2137,-2.5191,-0.8244
36296,0.0515,-0.0867,1.0115,0.2290,-2.3969,-0.7328
36306,0.0430,0.0100,1.0703,0.2137,-2.6565,-0.8855
36316,0.0542,-0.0920,1.0154,0.2443,-2.5191,-0.7634
36326,0.0439,0.0107,1.0640,0.2595,-2.5649,-0.8397
36336,0.0537,-0.0942,1.0256,0.2595,-2.4275,-0.9771
36348,0.0437,0.0132,1.0574,0.1832,-2.5191,-0.9160
36356,0.0559,-0.0923,1.0371,0.1985,-2.5954,-0.9466
36368,0.0435,0.0132,1.0449,0.2443,-2.6107,-0.7634
36376,0.0540,-0.0952,1.0481,0.2290,-2.5802,-0.9008
36386,0.0449,0.0112,1.0376,0.1832,-2.5191,-0.6260
36396,0.0532,-0.0886,1.0544,0.1527,-2.4580,-0.9160
36406,0.0454,0.0120,1.0193,0.2443,-2.5344,-0.7634
36416,0.0530,-0.0920,1.0715,0.2595,-2.5496,-0.9618
36426,0.0457,0.0061,1.0134,0.2137,-2.6565,-0.9771
36436,0.0483,-0.0801,1.0754,0.1985,-2.5038,-0.7481
36446,0.0488,0.0020,0.9929,0.2901,-2.4733,-0.6565
36456,0.0493,-0.0764,1.0889,0.1679,-2.5344,-0.9618
36466,0.0461,-0.0066,0.9937,0.1679,-2.4885,-0.6565
36476,0.0549,-0.0835,1.0022,0.1832,-2.4580,-0.9466
36486,0.0457,0.0046,1.0759,0.1832,-2.5496,-0.8702
36496,0.0540,-0.0928,1.0168,0.1985,-2.5344,-0.9313
36506,0.0405,0.0115,1.0647,0.1527,-2.5954,-0.9160
36516,0.0535,-0.0911,1.0198,0.2901,-2.4885,-0.9771
36526,0.0452,0.0110,1.0593,0.2137,-2.6412,-0.7939
36536,0.0535,-0.0959,1.0327,0.2901,-2.4427,-0.9160
36546,0.0415,0.0164,1.0471,0.1679,-2.5191,-0.9771
36556,0.0549,-0.0913,1.0393,0.2290,-2.5191,-1.0229
36566,0.0442,0.0083,1.0388,0.2137,-2.5496,-0.7786
36576,0.0547,-0.0908,1.0522,0.2290,-2.4733,-0.8550
36586,0.0427,0.0100,1.0288,0.2595,-2.5496,-0.9160
36596,0.0508,-0.0903,1.0645,0.1985,-2.5802,-0.9771
36606,0.0442,0.0098,1.0100,0.2290,-2.4733,-0.8092
36616,0.0513,-0.0842,1.0759,0.1832,-2.6412,-0.8702
36626,0.0469,0.0076,1.0081,0.1527,-2.5649,-0.8397
36639,0.0547,-0.0747,0.9907,0.2595,-2.4885,-0.6565
36646,0.0496,0.0017,0.9907,0.2901,-2.5496,-0.6718
36656,0.0491,-0.0745,1.0903,0.2137,-2.4733,-0.7634
36666,0.0503,-0.0078,0.9875,0.2901,-2.5496,-0.8244
36676,0.0483,-0.0613,1.0923,0.1832,-2.5802,-0.9160
36686,0.0483,-0.0178,0.9812,0.2595,-2.5344,-0.7634
36696,0.0483,-0.0557,1.1030,0.2290,-2.4885,-0.7023
36706,0.0508,-0.0232,0.9766,0.2901,-2.5649,-0.5344
36716,0.0481,-0.0476,1.0999,0.1985,-2.5954,-0.7786
36726,0.0508,-0.0315,0.9763,0.2901,-2.4427,-0.6718
36736,0.0444,-0.0432,1.1064,0.1985,-2.7023,-0.8702
36746,0.0520,-0.0378,0.9783,0.2443,-2.4122,-0.6412
36756,0.0459,-0.0359,1.1104,0.1069,-2.5954,-0.7634
36766,0.0540,-0.0493,0.9746,0.2443,-2.5496,-0.7328
36776,0.0425,-0.0286,1.1064,0.2137,-2.6412,-0.8702
36786,0.0540,-0.0562,0.9822,0.2137,-2.5802,-0.7939
36796,0.0442,-0.0227,1.1042,0.1374,-2.5954,-0.8244
36806,0.0513,0.0063,1.0098,0.2290,-2.4733,-0.8244
36816,0.0500,-0.0842,1.0747,0.1985,-2.6260,-0.9924
36826,0.0457,0.0071,1.0068,0.2290,-2.4427,-0.9771
36836,0.0515,-0.0779,1.0828,0.1679,-2.5954,-0.8702
36846,0.0486,0.0000,0.9958,0.1832,-2.4885,-0.6412
36856,0.0493,-0.0750,1.0908,0.1527,-2.5802,-0.8244
36866,0.0479,-0.0085,0.9915,0.2748,-2.4733,-0.8244
36876,0.0486,-0.0652,1.0916,0.1374,-2.5802,-0.9924
36886,0.0496,-0.0120,0.9795,0.3053,-2.4733,-0.7328
36898,0.0486,-0.0581,1.1001,0.1679,-2.6107,-0.6565
36906,0.0515,-0.0205,0.9792,0.3053,-2.5038,-0.5954
36916,0.0486,-0.0505,1.1006,0.1985,-2.6107,-0.7481
36926,0.0510,-0.0281,0.9729,0.3359,-2.5191,-0.7786
36936,0.0483,-0.0442,1.1042,0.1679,-2.6107,-0.9771
36946,0.0510,-0.0325,0.9729,0.2748,-2.4580,-0.8397
36956,0.0493,-0.0386,1.1069,0.2290,-2.5649,-0.8092
36966,0.0527,-0.0430,0.9722,0.2748,-2.5038,-0.7023
36976,0.0457,-0.0359,1.1062,0.1679,-2.5954,-0.9160
36986,0.0547,-0.0491,0.9797,0.2443,-2.4885,-0.8702
36996,0.0427,-0.0227,1.1084,0.1527,-2.5649,-0.8702
37006,0.0522,-0.0581,0.9771,0.2748,-2.5344,-0.7786
37016,0.0425,-0.0190,1.1055,0.2137,-2.5344,-0.7481
37026,0.0530,-0.0647,0.9900,0.2748,-2.5649,-0.6260
37036,0.0405,-0.0132,1.1018,0.1985,-2.4580,-0.7023
37046,0.0571,-0.0710,0.9875,0.2748,-2.5191,-0.7481
37056,0.0444,-0.0059,1.0935,0.1832,-2.4427,-0.9618
37066,0.0525,-0.0767,0.9927,0.1832,-2.6260,-0.9618
37076,0.0425,-0.0024,1.0906,0.1985,-2.4885,-0.8702
37086,0.0569,-0.0823,0.9993,0.2595,-2.5191,-0.8092
37096,0.0444,0.0059,1.0833,0.1679,-2.5038,-0.7786
37106,0.0527,-0.0864,1.0068,0.1985,-2.5649,-0.7023
37116,0.0422,0.0105,1.0708,0.2137,-2.5496,-0.7176
37126,0.0554,-0.0901,1.0164,0.2748,-2.5191,-0.6718
37136,0.0449,0.0117,1.0647,0.1527,-2.4885,-0.6565
37146,0.0498,-0.0273,0.9756,0.2595,-2.3969,-0.7481
37158,0.0457,-0.0435,1.1060,0.2137,-2.6412,-0.7176
37166,0.0493,-0.0349,0.9756,0.2595,-2.3969,-0.7176
37176,0.0464,-0.0388,1.1011,0.1069,-2.5954,-0.8397
37186,0.0522,-0.0403,0.9792,0.2443,-2.4733,-0.7939
37196,0.0439,-0.0320,1.1084,0.1374,-2.6260,-0.9313
37206,0.0564,-0.0515,0.9712,0.3053,-2.4427,-0.9466
37216,0.0439,-0.0269,1.1064,0.1221,-2.6107,-0.9466
37226,0.0532,-0.0562,0.9771,0.3206,-2.4122,-0.7481
37236,0.0420,-0.0205,1.1003,0.1985,-2.6718,-0.6107
37246,0.0542,-0.0659,0.9775,0.2901,-2.4275,-0.6260
37256,0.0427,-0.0144,1.0962,0.1374,-2.6260,-0.9008
37266,0.0508,-0.0701,0.9854,0.2443,-2.4580,-0.9924
37276,0.0396,-0.0059,1.1016,0.1985,-2.6565,-0.7786
37286,0.0549,-0.0725,0.9851,0.2901,-2.4733,-0.5954
37296,0.0459,-0.0044,1.0916,0.1832,-2.5649,-0.8702
37306,0.0552,-0.0791,0.9985,0.3053,-2.5191,-0.9008
37316,0.0432,-0.0010,1.0911,0.2443,-2.5344,-0.6718
37326,0.0583,-0.0833,0.9985,0.3053,-2.4580,-0.7786
37336,0.0461,0.0037,1.0808,0.2137,-2.4580,-0.8702
37346,0.0549,-0.0881,1.0110,0.2290,-2.5344,-0.9466
37359,0.0457,-0.0610,1.0935,0.2137,-2.6107,-0.9313
37366,0.0559,-0.0928,1.0107,0.2595,-2.5344,-0.7786
37376,0.0464,0.0076,1.0637,0.1832,-2.5344,-0.7634
37386,0.0549,-0.0945,1.0269,0.2443,-2.5344,-0.9466
37396,0.0422,0.0098,1.0593,0.1985,-2.5954,-0.8550
37406,0.0544,-0.0942,1.0286,0.2443,-2.5191,-0.8397
37416,0.0430,0.0120,1.0449,0.1527,-2.5954,-0.6718
37432,0.0518,-0.0386,0.9778,0.2595,-2.4885,-0.6565
37437,0.0459,-0.0320,1.1084,0.1527,-2.5802,-0.8550
37446,0.0520,-0.0901,1.0496,0.2137,-2.6260,-0.7023
37456,0.0427,0.0098,1.0376,0.1679,-2.3969,-0.7023
37466,0.0522,-0.0916,1.0564,0.2137,-2.5344,-1.0534
37476,0.0405,0.0134,1.0271,0.1832,-2.4885,-0.8397
37486,0.0544,-0.0579,0.9758,0.2595,-2.5802,-0.8855
37496,0.0452,-0.0181,1.1038,0.1527,-2.4885,-0.6412
37506,0.0535,-0.0649,0.9863,0.2443,-2.6260,-1.0229
37516,0.0417,-0.0132,1.1021,0.1832,-2.4885,-0.9008
37526,0.0554,-0.0688,0.9827,0.2748,-2.5038,-0.5954
37536,0.0435,-0.0093,1.0957,0.1679,-2.5649,-1.0687
37546,0.0527,-0.0752,0.9888,0.2443,-2.4885,-0.7634
37556,0.0420,-0.0044,1.0957,0.1679,-2.5802,-0.6107
37566,0.0535,-0.0784,0.9939,0.1832,-2.5649,-0.9160
37576,0.0449,0.0000,1.0852,0.1679,-2.6412,-0.6107
37586,0.0522,-0.0806,0.9973,0.2290,-2.5038,-0.8702
37596,0.0408,0.0039,1.0840,0.1527,-2.6107,-0.8244
37606,0.0559,-0.0852,1.0032,0.2748,-2.4427,-0.6260
37616,0.0435,0.0081,1.0784,0.1832,-2.5954,-0.9618
37626,0.0552,-0.0903,1.0117,0.2443,-2.4885,-0.7176
37636,0.0437,0.0107,1.0693,0.1985,-2.4733,-0.9313
37646,0.0576,-0.0886,1.0168,0.2901,-2.5649,-0.9618
37656,0.0452,0.0112,1.0681,0.1679,-2.5344,-0.6870
37666,0.0544,-0.0898,1.0215,0.1985,-2.5191,-1.0534
37676,0.0452,0.0100,1.0623,0.1985,-2.5649,-0.4885
37688,0.0540,-0.0947,1.0244,0.2443,-2.4885,-0.9924
37696,0.0425,0.0107,1.0547,0.1679,-2.6260,-0.7176
37706,0.0569,-0.0957,1.0327,0.2290,-2.3664,-0.8550
37716,0.0442,0.0137,1.0552,0.1679,-2.5344,-1.0534
37726,0.0552,-0.0950,1.0425,0.2290,-2.5038,-0.7786
37736,0.0471,0.0107,1.0447,0.2290,-2.4733,-0.9466
37746,0.0552,-0.0916,1.0476,0.2443,-2.5954,-0.8092
37756,0.0425,0.0132,1.0413,0.2748,-2.5496,-0.7481
37766,0.0540,-0.0918,1.0527,0.1985,-2.6107,-1.0076
37776,0.0437,0.0127,1.0286,0.1985,-2.5038,-0.6412
37786,0.0518,-0.0901,1.0610,0.2290,-2.5802,-0.8244
37796,0.0449,0.0159,1.0271,0.2290,-2.6107,-0.8092
37806,0.0542,-0.0886,1.0625,0.2443,-2.4885,-0.8092
37816,0.0420,-0.0173,1.1047,0.1221,-2.5802,-0.7786
37826,0.0542,-0.0659,0.9846,0.2137,-2.4275,-0.7939
37836,0.0415,-0.0127,1.1016,0.1679,-2.6412,-0.8244
37846,0.0564,-0.0725,0.9785,0.3359,-2.4580,-0.7481
37856,0.0447,-0.0105,1.0962,0.1221,-2.5649,-0.8855
37866,0.0549,-0.0720,0.9954,0.2748,-2.5344,-0.5954
37876,0.0452,-0.0095,1.0974,0.1527,-2.4885,-1.0992
37886,0.0571,-0.0769,0.9883,0.2137,-2.5496,-0.5954
37896,0.0430,-0.0027,1.0942,0.2290,-2.5496,-0.7176
37906,0.0544,-0.0779,0.9946,0.2748,-2.4733,-0.9924
37916,0.0442,-0.0039,1.0896,0.1679,-2.6260,-0.5649
37926,0.0564,-0.0808,0.9934,0.2748,-2.4733,-0.9160
37936,0.0437,0.0020,1.0876,0.2137,-2.3969,-0.8397
37948,0.0564,-0.0823,0.9995,0.2137,-2.5038,-0.6260
37956,0.0442,0.0029,1.0818,0.1527,-2.6260,-0.9771
37966,0.0544,-0.0867,0.9980,0.2290,-2.3817,-0.6107
37976,0.0457,0.0032,1.0796,0.1527,-2.4885,-1.0382
37986,0.0527,-0.0903,1.0071,0.3053,-2.5191,-0.6718
37996,0.0449,0.0063,1.0728,0.1985,-2.4885,-0.9618
38006,0.0566,-0.0911,1.0098,0.2137,-2.5649,-0.7481
38016,0.0471,0.0066,1.0686,0.1985,-2.5954,-0.8855
38026,0.0554,-0.0916,1.0188,0.2595,-2.4275,-0.7786
38036,0.0459,0.0117,1.0664,0.1527,-2.5954,-0.8092
38046,0.0552,-0.0913,1.0244,0.2443,-2.4122,-0.8244
38056,0.0452,0.0078,1.0588,0.2443,-2.5649,-0.8397
38066,0.0562,-0.0938,1.0298,0.2290,-2.5344,-0.8092
38076,0.0435,0.0137,1.0566,0.2290,-2.4275,-0.8244
38086,0.0579,-0.0918,1.0344,0.2290,-2.5954,-0.8855
38096,0.0452,0.0125,1.0486,0.1527,-2.5038,-0.7328
38106,0.0544,-0.0935,1.0435,0.2901,-2.5649,-0.9008
38116,0.0415,0.0134,1.0461,0.1832,-2.5496,-0.6412
38126,0.0525,-0.0906,1.0471,0.2595,-2.5038,-0.9771
38136,0.0430,0.0115,1.0381,0.1832,-2.5954,-0.7328
38146,0.0535,-0.0918,1.0564,0.2748,-2.4580,-0.9160
38156,0.0459,-0.0293,1.1057,0.1985,-2.5954,-1.0687
38166,0.0522,-0.0544,0.9746,0.2290,-2.4885,-0.6870
38176,0.0420,-0.0261,1.1038,0.1679,-2.5191,-0.9160
38186,0.0537,-0.0618,0.9785,0.3206,-2.6107,-0.7939
38196,0.0435,-0.0215,1.1099,0.1985,-2.5191,-0.8244
38206,0.0566,-0.0657,0.9744,0.2137,-2.5038,-0.9160
38219,0.0386,-0.0178,1.1001,0.2137,-2.5496,-0.6870
38226,0.0520,-0.0662,0.9829,0.2901,-2.3969,-0.8702
38236,0.0422,-0.0112,1.1001,0.2137,-2.6718,-0.6870
38246,0.0557,-0.0747,0.9866,0.2443,-2.4275,-0.8550
38256,0.0415,-0.0088,1.0977,0.2748,-2.5038,-0.7176
38266,0.0522,-0.0767,0.9902,0.2748,-2.5954,-0.9160
38276,0.0413,-0.0078,1.0916,0.1832,-2.4733,-1.0382
38286,0.0557,-0.0786,0.9939,0.2290,-2.4733,-0.7023
38296,0.0432,-0.0046,1.0867,0.1832,-2.6107,-1.0229
38306,0.0566,-0.0872,1.0002,0.2901,-2.4122,-0.7176
38316,0.0398,0.0020,1.0825,0.2443,-2.6870,-0.7328
38326,0.0530,-0.0867,1.0044,0.3511,-2.4122,-0.8855
38336,0.0449,0.0078,1.0750,0.2595,-2.6565,-0.8244
38346,0.0544,-0.0913,1.0125,0.2290,-2.3817,-0.6565
38356,0.0442,0.0110,1.0671,0.1679,-2.6260,-0.6870
38367,0.0554,-0.0923,1.0188,0.2290,-2.4885,-0.8702
38376,0.0422,0.0095,1.0608,0.1527,-2.6260,-1.0534
38386,0.0559,-0.0933,1.0256,0.1985,-2.4427,-0.9466
38396,0.0447,0.0129,1.0522,0.1985,-2.5954,-0.8092
38406,0.0564,-0.0962,1.0349,0.2137,-2.5191,-0.7176
38416,0.0444,0.0100,1.0444,0.2748,-2.6107,-0.6565
38426,0.0540,-0.0891,1.0432,0.2290,-2.4275,-0.8244
38436,0.0427,0.0134,1.0327,0.2290,-2.6412,-0.7786
38446,0.0525,-0.0894,1.0562,0.1832,-2.6412,-0.9008
38456,0.0454,0.0117,1.0244,0.2748,-2.5344,-0.8244
38466,0.0525,-0.0894,1.0679,0.2443,-2.5802,-0.9160
38478,0.0413,-0.0161,1.1042,0.1679,-2.6565,-0.9924
38486,0.0549,-0.0713,0.9810,0.2901,-2.4275,-0.8550
38496,0.0396,-0.0078,1.0955,0.1985,-2.5649,-0.9313
38506,0.0542,-0.0801,0.9963,0.2290,-2.5496,-0.8855
38516,0.0410,0.0024,1.0818,0.1374,-2.6565,-0.8092
38526,0.0554,-0.0850,1.0037,0.3053,-2.4733,-0.7786
38536,0.0417,0.0059,1.0747,0.2748,-2.5191,-0.8855
38546,0.0532,-0.0911,1.0115,0.3053,-2.5802,-0.6260
38556,0.0408,0.0127,1.0630,0.1527,-2.5649,-0.8702
38566,0.0571,-0.0911,1.0242,0.2595,-2.5496,-0.7481
38576,0.0442,0.0120,1.0549,0.1985,-2.5344,-0.9160
38586,0.0540,-0.0981,1.0391,0.1985,-2.4275,-0.9466
38596,0.0425,0.0161,1.0469,0.2137,-2.4733,-0.7481
38606,0.0535,-0.0911,1.0493,0.2290,-2.5191,-0.8855
38616,0.0432,0.0122,1.0251,0.2290,-2.5802,-0.6718
38626,0.0537,-0.0898,1.0669,0.1985,-2.6107,-0.8702
38636,0.0454,0.0095,1.0200,0.2290,-2.6718,-0.8092
38646,0.0520,-0.0830,1.0698,0.1985,-2.4275,-0.7939
38656,0.0486,0.0044,0.9971,0.3359,-2.4885,-0.9313
38666,0.0471,-0.0786,1.0916,0.1832,-2.5191,-0.9160
38676,0.0447,0.0000,0.9976,0.2595,-2.5344,-0.7176
38686,0.0498,-0.0708,1.0903,0.2290,-2.6412,-0.8855
38696,0.0503,-0.0085,0.9827,0.1832,-2.4427,-0.8092
38706,0.0476,-0.0652,1.0933,0.2137,-2.6412,-0.7634
38716,0.0515,-0.0156,0.9802,0.2137,-2.5496,-0.6870
38726,0.0476,-0.0549,1.0981,0.1527,-2.4885,-0.9160
38739,0.0430,0.0071,1.0613,0.1221,-2.6718,-0.8550
38746,0.0449,-0.0476,1.1030,0.1832,-2.6107,-0.7328
38756,0.0503,-0.0339,0.9785,0.2595,-2.5496,-0.6260
38766,0.0469,-0.0386,1.1045,0.1679,-2.3817,-0.7481
38776,0.0518,-0.0405,0.9712,0.2901,-2.5802,-0.7328
38786,0.0452,-0.0303,1.1064,0.1527,-2.4733,-0.7939
38796,0.0520,-0.0515,0.9805,0.2595,-2.4885,-0.7481
38806,0.0420,-0.0266,1.1082,0.1221,-2.5802,-0.8702
38816,0.0530,-0.0591,0.9773,0.2595,-2.4885,-0.9771
38826,0.0498,-0.0867,1.0701,0.2443,-2.5802,-0.7176
38836,0.0457,0.0083,1.0103,0.1985,-2.4122,-0.7176
38846,0.0542,-0.0828,1.0735,0.1679,-2.6718,-1.0229
38856,0.0479,0.0029,0.9998,0.2595,-2.5344,-0.8092
38866,0.0474,-0.0818,1.0828,0.1832,-2.5954,-0.8397
38876,0.0461,0.0037,0.9978,0.2901,-2.5496,-0.8092
38886,0.0491,-0.0759,1.0842,0.1985,-2.5344,-0.9771
38896,0.0474,-0.0017,0.9829,0.2290,-2.5191,-0.6107
38906,0.0461,-0.0688,1.0903,0.1985,-2.4275,-0.7634
38916,0.0498,-0.0078,0.9905,0.1679,-2.5802,-0.9160
38926,0.0520,-0.0659,1.0938,0.1832,-2.5191,-0.8092
38936,0.0510,-0.0159,0.9829,0.2137,-2.6107,-0.7328
38946,0.0444,-0.0642,1.0967,0.1832,-2.4427,-1.0992
38956,0.0479,-0.0198,0.9834,0.2290,-2.5649,-0.8550
38966,0.0486,-0.0576,1.0959,0.1221,-2.5954,-0.7786
38976,0.0540,-0.0256,0.9780,0.2290,-2.5191,-0.6565
38986,0.0471,-0.0486,1.1064,0.1374,-2.5649,-1.0076
38998,0.0513,-0.0332,0.9805,0.2595,-2.4885,-0.7481
39006,0.0471,-0.0374,1.1057,0.1985,-2.5344,-0.7634
39016,0.0549,-0.0398,0.9771,0.3664,-2.5496,-0.8244
39026,0.0461,-0.0376,1.1057,0.1985,-2.5344,-0.9466
39036,0.0544,-0.0464,0.9761,0.2595,-2.4275,-0.8855
39046,0.0466,-0.0300,1.1116,0.1374,-2.5191,-0.7328
39056,0.0547,-0.0513,0.9766,0.2137,-2.5344,-0.5802
39066,0.0427,-0.0244,1.1057,0.1679,-2.5496,-0.6260
39076,0.0518,-0.0620,0.9819,0.2901,-2.4885,-0.7939
39086,0.0435,-0.0217,1.1069,0.1527,-2.5496,-0.9924
39096,0.0554,-0.0679,0.9790,0.2443,-2.4580,-0.9771
39106,0.0449,-0.0120,1.0981,0.1221,-2.6107,-0.8397
39116,0.0520,-0.0747,0.9912,0.3053,-2.4122,-0.8855
39126,0.0417,-0.0071,1.0906,0.1679,-2.5649,-0.6870
39136,0.0557,-0.0789,0.9888,0.2290,-2.3817,-0.7328
39146,0.0488,0.0002,1.0896,0.1374,-2.6565,-0.8550
39156,0.0471,-0.0078,0.9875,0.2901,-2.7176,-0.6107
39166,0.0496,-0.0630,1.0908,0.1679,-2.4580,-0.8855
39176,0.0500,-0.0149,0.9778,0.2595,-2.5954,-0.9008
39186,0.0476,-0.0625,1.0991,0.1679,-2.4885,-1.1603
39196,0.0481,-0.0227,0.9800,0.2443,-2.5802,-0.8397
39206,0.0476,-0.0500,1.0974,0.2137,-2.5191,-0.8092
39216,0.0525,-0.0295,0.9819,0.2137,-2.5496,-0.6870
39226,0.0461,-0.0464,1.1030,0.0916,-2.5038,-0.7786
39236,0.0515,-0.0371,0.9768,0.3969,-2.6107,-0.6260
39246,0.0461,-0.0403,1.1038,0.1985,-2.5954,-0.8550
39258,0.0537,-0.0449,0.9729,0.1374,-2.5038,-0.7481
39266,0.0432,-0.0349,1.1042,0.1985,-2.6107,-0.9313
39276,0.0540,-0.0537,0.9795,0.2595,-2.4885,-0.9771
39286,0.0432,-0.0271,1.1086,0.2290,-2.5344,-0.8550
39296,0.0552,-0.0596,0.9775,0.2595,-2.5496,-0.7328
39306,0.0442,-0.0198,1.1045,0.2290,-2.5802,-0.6718
39316,0.0530,-0.0667,0.9866,0.2748,-2.5649,-0.5954
39326,0.0461,-0.0127,1.1038,0.1832,-2.6107,-0.6718
39336,0.0581,-0.0688,0.9875,0.2901,-2.5038,-0.7939
39346,0.0427,-0.0085,1.0884,0.1679,-2.6412,-0.8550
39356,0.0537,-0.0786,0.9963,0.2290,-2.4427,-0.9160
39366,0.0425,0.0005,1.0840,0.2748,-2.5344,-0.9771
39377,0.0549,-0.0852,0.9988,0.3053,-2.4733,-0.9618
39386,0.0452,0.0022,1.0806,0.2443,-2.6870,-0.8244
39396,0.0559,-0.0898,1.0129,0.2748,-2.6260,-0.8397
39406,0.0422,0.0100,1.0679,0.1985,-2.4275,-0.8244
39416,0.0554,-0.0906,1.0225,0.3359,-2.6107,-0.7786
39426,0.0432,0.0112,1.0613,0.1985,-2.4733,-0.7786
39436,0.0576,-0.0945,1.0325,0.2137,-2.5191,-0.7786
39446,0.0417,0.0161,1.0459,0.1679,-2.6718,-0.8092
39456,0.0518,-0.0916,1.0491,0.1527,-2.6107,-0.8855
39466,0.0457,0.0115,1.0356,0.1679,-2.5191,-0.9008
39476,0.0527,-0.0898,1.0588,0.2137,-2.4733,-1.0382
39486,0.0452,0.0115,1.0210,0.1832,-2.4580,-0.7328
39496,0.0544,-0.0684,0.9788,0.2290,-2.5344,-0.8855
39506,0.0422,-0.0059,1.0945,0.1985,-2.5954,-0.7328
39519,0.0540,-0.0803,0.9958,0.2290,-2.5496,-0.9618
39526,0.0422,0.0046,1.0837,0.1679,-2.5954,-0.7786
39536,0.0544,-0.0847,1.0029,0.2290,-2.3511,-0.9466
39546,0.0459,0.0093,1.0745,0.1527,-2.5344,-0.6870
39556,0.0564,-0.0935,1.0190,0.2748,-2.5191,-0.7786
39566,0.0420,0.0129,1.0564,0.2443,-2.4885,-0.9466
39576,0.0566,-0.0906,1.0322,0.2595,-2.5649,-0.7634
39586,0.0439,0.0139,1.0464,0.2595,-2.6565,-0.7634
39596,0.0537,-0.0908,1.0483,0.2595,-2.6718,-0.9466
39606,0.0430,0.0144,1.0283,0.2443,-2.6260,-0.7023
39616,0.0525,-0.0869,1.0652,0.2595,-2.5496,-0.9160
39626,0.0466,0.0090,1.0125,0.2748,-2.5802,-0.7328
39636,0.0486,-0.0813,1.0784,0.2748,-2.5191,-0.8397
39646,0.0457,0.0049,1.0054,0.2748,-2.4275,-0.7481
39656,0.0471,-0.0740,1.0857,0.1832,-2.4580,-0.8550
39666,0.0491,-0.0034,0.9851,0.3359,-2.4580,-0.7939
39676,0.0471,-0.0640,1.0940,0.1832,-2.4580,-0.8397
39686,0.0530,-0.0144,0.9819,0.2748,-2.4427,-0.8397
39696,0.0505,-0.0527,1.0979,0.1832,-2.5191,-0.8855
39706,0.0481,-0.0261,0.9758,0.2748,-2.4733,-0.8702
39716,0.0432,-0.0442,1.1057,0.1832,-2.5344,-0.7328
39726,0.0498,-0.0391,0.9785,0.2595,-2.5496,-0.8092
39736,0.0449,-0.0330,1.1057,0.1374,-2.6260,-0.9008
39746,0.0542,-0.0496,0.9785,0.2290,-2.5344,-0.6107
39756,0.0430,-0.0225,1.1008,0.1374,-2.6870,-1.0076
39766,0.0549,-0.0603,0.9868,0.3053,-2.6260,-0.7328
39778,0.0479,-0.0798,1.0730,0.2443,-2.5649,-0.9160
39786,0.0542,-0.0691,0.9829,0.2443,-2.4885,-0.8244
39796,0.0410,-0.0024,1.0908,0.1679,-2.6260,-0.7786
39806,0.0581,-0.0806,1.0020,0.3206,-2.4275,-0.9618
39816,0.0425,0.0054,1.0796,0.1679,-2.3969,-0.7176
39826,0.0564,-0.0857,1.0083,0.2137,-2.4427,-0.8855
39836,0.0454,-0.0537,1.0996,0.1832,-2.5649,-0.6260
39846,0.0508,-0.0247,0.9778,0.2137,-2.4885,-0.8397
39856,0.0488,-0.0422,1.0996,0.2443,-2.6107,-0.8550
39866,0.0537,-0.0356,0.9753,0.3359,-2.6260,-0.7328
39876,0.0459,-0.0383,1.1084,0.1527,-2.5038,-1.0534
39886,0.0542,-0.0461,0.9802,0.2901,-2.4885,-0.5649
39896,0.0417,-0.0242,1.1094,0.1985,-2.6107,-0.9771
39906,0.0535,-0.0574,0.9751,0.2290,-2.4733,-0.7786
39916,0.0430,-0.0161,1.0972,0.1221,-2.6107,-0.9618
39926,0.0549,-0.0659,0.9907,0.2290,-2.5802,-0.7634
39936,0.0398,-0.0042,1.0991,0.1527,-2.4733,-0.8702
39946,0.0564,-0.0745,0.9883,0.2443,-2.5038,-0.9924
39956,0.0439,-0.0012,1.0874,0.2443,-2.5191,-0.6412
39966,0.0527,-0.0845,0.9998,0.2290,-2.3664,-0.9924
39976,0.0425,0.0073,1.0762,0.1985,-2.5802,-0.7023
39986,0.0566,-0.0867,1.0103,0.2443,-2.4122,-0.8092
39996,0.0425,0.0125,1.0720,0.1832,-2.5954,-0.7786
40006,0.0571,-0.0908,1.0244,0.2595,-2.5802,-0.8550
40016,0.0435,0.0171,1.0554,0.1679,-2.5344,-0.8092
40026,0.0547,-0.0913,1.0342,0.2748,-2.4733,-0.7786
40038,0.0430,0.0098,1.0439,0.1832,-2.5038,-0.9008
40046,0.0547,-0.0923,1.0474,0.3511,-2.4733,-0.9008
40060,0.0430,-0.0271,1.1042,0.2443,-2.4733,-0.7786
40066,0.0537,-0.0925,1.0518,0.2748,-2.4122,-0.8244
40076,0.0466,0.0107,1.0168,0.2748,-2.5344,-0.7481
40086,0.0508,-0.0854,1.0730,0.2595,-2.5344,-1.0534
40096,0.0442,0.0073,1.0105,0.2290,-2.5496,-0.7176
40106,0.0491,-0.0781,1.0769,0.1679,-2.5649,-0.8244
40116,0.0496,0.0015,0.9875,0.2595,-2.5954,-0.7023
40126,0.0510,-0.0759,1.0896,0.2137,-2.5649,-0.9313
40136,0.0483,-0.0054,0.9885,0.2748,-2.7176,-0.7023
40146,0.0493,-0.0608,1.0876,0.2137,-2.6718,-0.9924
40156,0.0500,-0.0137,0.9780,0.2595,-2.6107,-0.6718
40166,0.0566,-0.0938,1.0227,0.2595,-2.5496,-0.9313
40176,0.0452,0.0149,1.0510,0.2290,-2.5649,-0.6260
40186,0.0544,-0.0901,1.0337,0.3053,-2.4580,-0.7328
40196,0.0452,0.0134,1.0391,0.1985,-2.4885,-1.0534
40206,0.0527,-0.0884,1.0518,0.2290,-2.5038,-0.8397
40216,0.0408,0.0144,1.0264,0.1985,-2.5496,-0.6107
40226,0.0520,-0.0854,1.0623,0.1985,-2.5344,-0.8397
40236,0.0486,0.0042,1.0039,0.2748,-2.5496,-0.9618
40246,0.0515,-0.0803,1.0845,0.2290,-2.5191,-0.8397
40256,0.0437,0.0037,0.9985,0.1832,-2.4275,-0.5802
40266,0.0508,-0.0688,1.0889,0.2290,-2.5191,-0.7634
40276,0.0520,-0.0098,0.9802,0.3206,-2.5496,-0.9160
40287,0.0474,-0.0601,1.0964,0.1527,-2.5191,-1.1298
40296,0.0505,-0.0225,0.9827,0.2137,-2.4427,-0.7634
40306,0.0493,-0.0447,1.1033,0.1832,-2.5496,-0.6870
40316,0.0547,-0.0342,0.9744,0.2443,-2.5344,-0.6718
40326,0.0449,-0.0361,1.1040,0.1221,-2.4733,-1.0382
40336,0.0532,-0.0444,0.9746,0.1985,-2.4275,-0.8702
40346,0.0430,-0.0222,1.1064,0.1832,-2.5802,-0.7176
40356,0.0552,-0.0574,0.9783,0.2748,-2.5496,-0.7481
40366,0.0425,-0.0159,1.0991,0.1527,-2.5954,-1.0076
40376,0.0542,-0.0686,0.9895,0.2137,-2.5191,-0.7023
40392,0.0522,-0.0732,1.0847,0.1679,-2.4122,-0.9008
40402,0.0500,-0.0002,0.9871,0.2595,-2.4733,-0.7939
40406,0.0447,0.0020,1.0813,0.2137,-2.6718,-0.7328
40416,0.0547,-0.0847,1.0076,0.2443,-2.5038,-0.9008
40426,0.0437,0.0085,1.0698,0.2137,-2.5802,-0.8550
40436,0.0552,-0.0874,1.0193,0.2137,-2.5496,-0.8092
40446,0.0449,0.0142,1.0613,0.2290,-2.6260,-0.7786
40456,0.0566,-0.0930,1.0320,0.2137,-2.5344,-0.8092
40466,0.0413,0.0146,1.0491,0.1832,-2.4733,-0.8397
40476,0.0542,-0.0928,1.0452,0.4275,-2.5191,-0.9466
40486,0.0449,0.0149,1.0354,0.4122,-2.5344,-0.7176
40496,0.0522,-0.0605,0.9812,-0.1374,-2.4275,-0.7786
40506,0.0391,-0.0166,1.1016,0.2901,-2.4733,-0.8397
40516,0.0566,-0.0662,0.9900,0.8092,-2.5954,-0.8244
40526,0.0439,-0.0024,1.0969,-0.2443,-2.5344,-0.7939
40536,0.0540,-0.0828,0.9988,-0.2137,-2.3511,-0.8397
40548,0.0422,0.0078,1.0830,0.9313,-2.5954,-0.9313
40556,0.0586,-0.0796,1.0095,0.6107,-2.5649,-0.8244
40566,0.0459,0.0078,1.0728,-0.6260,-2.4275,-0.5802
40576,0.0522,-0.0999,1.0222,0.1069,-2.3664,-0.7328
40586,0.0444,0.0166,1.0574,0.7481,-2.6412,-0.8550
40596,0.0564,-0.0906,1.0349,-0.0153,-2.4885,-0.8855
40606,0.0471,0.0081,1.0352,-0.3359,-2.4122,-0.8092
40616,0.0537,-0.0935,1.0520,0.2901,-2.5954,-0.7481
40626,0.0444,0.0137,1.0247,0.4122,-2.5649,-0.7481
40636,0.0527,-0.0884,1.0679,0.2443,-2.5038,-0.9771
40646,0.0508,0.0037,1.0046,1.0229,-2.6718,-0.8092
40656,0.0500,-0.0759,1.0840,1.5573,-2.8244,-0.9924
40666,0.0471,0.0063,1.0005,0.6870,-2.6107,-0.6870
40676,0.0488,-0.0669,1.0889,0.0916,-2.4122,-0.8092
40686,0.0513,-0.0078,0.9817,0.0153,-2.4885,-0.8550
40696,0.0479,-0.0615,1.0972,0.0153,-2.5649,-0.9313
40706,0.0515,-0.0183,0.9792,0.4427,-2.5496,-0.5802
40716,0.0493,-0.0420,1.0991,-0.1832,-2.4580,-0.7176
40726,0.0518,-0.0352,0.9717,-0.3359,-2.4580,-0.7023
40736,0.0457,-0.0366,1.1038,-0.1832,-2.4885,-0.8244
40746,0.0508,-0.0469,0.9792,-0.2137,-2.3511,-0.7481
40756,0.0439,-0.0225,1.1077,-0.0305,-2.5802,-0.8244
40766,0.0544,-0.0579,0.9780,0.2595,-2.5344,-0.6870
40776,0.0413,-0.0139,1.0989,0.1221,-2.5496,-0.8855
40786,0.0503,-0.0710,0.9929,0.3206,-2.5191,-0.9618
40796,0.0425,-0.0032,1.0967,0.3969,-2.6260,-0.8702
40806,0.0566,-0.0779,0.9946,0.2290,-2.6260,-0.8397
40819,0.0469,-0.0671,1.0959,0.0916,-2.5649,-0.8092
40826,0.0486,-0.0125,0.9866,0.2443,-2.4122,-0.7023
40836,0.0476,-0.0559,1.0969,0.2748,-2.5191,-0.8702
40846,0.0525,-0.0220,0.9795,0.3664,-2.5496,-0.9008
40856,0.0449,-0.0449,1.1045,0.4427,-2.5954,-0.8855
40866,0.0535,-0.0347,0.9790,0.3969,-2.5038,-0.8702
40876,0.0444,-0.0337,1.1106,0.2748,-2.5496,-0.9160
40886,0.0535,-0.0457,0.9807,0.4122,-2.4580,-0.8092
40896,0.0427,-0.0234,1.1079,0.1985,-2.4885,-0.9618
40906,0.0510,-0.0564,0.9814,0.0916,-2.4885,-0.7634
40916,0.0432,-0.0146,1.1016,0.1374,-2.5802,-0.8092
40926,0.0547,-0.0657,0.9812,0.3664,-2.5344,-0.8550
40936,0.0415,-0.0088,1.0923,0.2137,-2.5496,-0.7176
40946,0.0530,-0.0791,0.9944,0.2748,-2.4733,-0.8397
40956,0.0430,0.0000,1.0859,0.1069,-2.5191,-0.8397
40966,0.0549,-0.0847,0.9995,0.2595,-2.4733,-0.8855
40976,0.0439,0.0066,1.0771,0.0153,-2.4427,-0.7481
40986,0.0547,-0.0918,1.0120,0.0305,-2.5344,-0.8702
40996,0.0435,0.0098,1.0667,0.0305,-2.4733,-0.8550
41006,0.0564,-0.0903,1.0137,0.1832,-2.4275,-0.8092
41016,0.0420,0.0110,1.0591,-0.0611,-2.3511,-0.7939
41026,0.0552,-0.0940,1.0315,0.0763,-2.4733,-0.7176
41036,0.0449,0.0132,1.0491,0.3664,-2.5954,-0.8550
41046,0.0557,-0.0903,1.0493,0.2137,-2.5344,-0.8550
41056,0.0442,0.0103,1.0337,0.1221,-2.6260,-0.8244
41066,0.0547,-0.0894,1.0554,0.2901,-2.4733,-0.7939
41081,0.0454,-0.0181,1.1089,0.0916,-2.4122,-0.8092
41086,0.0527,-0.0864,1.0676,0.2748,-2.4733,-0.8397
41096,0.0479,0.0093,1.0093,0.8244,-2.6412,-0.6870
41106,0.0522,-0.0828,1.0806,0.1832,-2.6107,-0.8550
41116,0.0466,0.0029,1.0071,0.1374,-2.5344,-0.8244
41126,0.0486,-0.0757,1.0820,0.1527,-2.5191,-0.9618
41136,0.0479,-0.0029,0.9873,0.0153,-2.5191,-0.7786
41146,0.0532,-0.0840,1.0012,0.4580,-2.3817,-0.8702
41156,0.0430,0.0042,1.0752,-0.1221,-2.5344,-0.7176
41166,0.0552,-0.0879,1.0090,0.0458,-2.4427,-0.8397
41176,0.0439,0.0090,1.0710,0.2290,-2.6412,-0.9008
41186,0.0564,-0.0889,1.0190,0.3053,-2.5954,-0.7634
41196,0.0422,0.0154,1.0588,0.1679,-2.5038,-0.7481
41206,0.0525,-0.0940,1.0337,0.2290,-2.4885,-0.8550
41216,0.0447,0.0100,1.0457,0.4275,-2.5496,-0.8397
41226,0.0530,-0.0867,1.0481,0.4275,-2.5649,-1.0229
41236,0.0430,0.0125,1.0376,0.1527,-2.6107,-0.7939
41246,0.0520,-0.0898,1.0508,0.2443,-2.5954,-0.8244
41256,0.0439,0.0134,1.0269,0.1374,-2.5802,-0.8092
41266,0.0508,-0.0901,1.0710,-0.2443,-2.3817,-0.7786
41276,0.0444,0.0049,1.0181,0.0763,-2.5038,-0.7939
41286,0.0500,-0.0801,1.0789,0.6718,-2.6107,-0.9160
41296,0.0483,0.0071,1.0005,0.1832,-2.5649,-0.7634
41306,0.0466,-0.0823,1.0842,0.1221,-2.6565,-0.8702
41316,0.0461,-0.0005,0.9966,0.3664,-2.6412,-0.7023
41326,0.0503,-0.0674,1.0852,0.1069,-2.5191,-0.8702
41339,0.0417,0.0068,1.0789,-0.0153,-2.6107,-0.7328
41346,0.0474,-0.0610,1.1030,0.0153,-2.5344,-0.7176
41356,0.0469,-0.0151,0.9814,0.0611,-2.5344,-0.7634
41366,0.0476,-0.0500,1.1003,-0.5038,-2.5038,-0.9008
41376,0.0493,-0.0303,0.9744,-0.1985,-2.4885,-0.7939
41386,0.0457,-0.0452,1.1042,0.2137,-2.6870,-0.8244
41396,0.0503,-0.0381,0.9746,0.2595,-2.5191,-0.7786
41407,0.0481,-0.0374,1.1060,0.1374,-2.5649,-0.9466
41416,0.0532,-0.0476,0.9736,0.5649,-2.6260,-0.7786
41426,0.0403,-0.0266,1.1060,0.1221,-2.6107,-0.6107
41436,0.0527,-0.0564,0.9817,0.2595,-2.5496,-0.7939
41446,0.0408,-0.0142,1.1072,0.4733,-2.6565,-0.8702
41456,0.0574,-0.0649,0.9819,0.0763,-2.4580,-0.8702
41466,0.0430,-0.0095,1.0903,0.1985,-2.5344,-0.8397
41476,0.0471,0.0020,1.0012,-0.0916,-2.4885,-0.6870
41486,0.0479,-0.0745,1.0859,-0.1221,-2.5344,-0.9008
41496,0.0496,-0.0059,0.9875,0.6260,-2.5802,-0.7634
41506,0.0491,-0.0574,1.0969,-0.1221,-2.5344,-0.8855
41516,0.0466,-0.0198,0.9771,-0.0305,-2.4275,-0.6718
41526,0.0498,-0.0469,1.1013,0.3206,-2.4733,-0.8244
41536,0.0522,-0.0286,0.9753,0.1069,-2.4275,-0.8397
41546,0.0457,-0.0449,1.1052,-0.0305,-2.4885,-0.8550
41556,0.0527,-0.0447,0.9751,0.9466,-2.5344,-0.7939
41566,0.0469,-0.0205,1.1111,0.7023,-2.6107,-0.8855
41576,0.0544,-0.0562,0.9758,-0.0611,-2.4580,-0.8397
41586,0.0432,-0.0229,1.1021,0.3206,-2.5802,-0.7176
41598,0.0525,-0.0640,0.9846,0.7023,-2.5954,-0.8855
41606,0.0413,-0.0090,1.0999,0.3206,-2.6412,-0.8244
41616,0.0564,-0.0740,0.9871,0.2443,-2.5802,-0.8855
41626,0.0442,-0.0032,1.0898,0.1527,-2.5191,-0.8855
41636,0.0527,-0.0811,1.0010,0.2595,-2.5496,-0.8092
41646,0.0464,0.0090,1.0759,0.0305,-2.5191,-0.8702
41656,0.0535,-0.0891,1.0120,0.0916,-2.4733,-0.6870
41666,0.0444,0.0085,1.0686,-0.0305,-2.5344,-0.9771
41676,0.0535,-0.0908,1.0244,-0.0305,-2.4885,-0.8397
41686,0.0415,0.0139,1.0564,-0.0916,-2.4885,-0.7939
41696,0.0525,-0.0901,1.0415,0.0153,-2.4275,-0.9313
41706,0.0452,0.0085,1.0374,0.1374,-2.5496,-0.7176
41716,0.0535,-0.0916,1.0588,0.2290,-2.5038,-0.9466
41726,0.0459,0.0117,1.0269,0.1679,-2.5038,-0.7786
41736,0.0498,-0.0876,1.0696,0.2443,-2.5802,-0.8855
41746,0.0471,0.0076,1.0051,0.6565,-2.6718,-0.8092
41756,0.0518,-0.0803,1.0847,0.3511,-2.6412,-0.8702
41766,0.0476,-0.0029,0.9927,0.2290,-2.4122,-0.7786
41776,0.0520,-0.0691,1.0857,0.4580,-2.5344,-0.8092
41786,0.0505,-0.0073,0.9844,0.4580,-2.5496,-0.7786
41796,0.0464,-0.0618,1.0991,0.1832,-2.5344,-0.9008
41806,0.0420,0.0132,1.0630,0.1985,-2.5496,-0.8244
41816,0.0574,-0.0891,1.0259,0.2137,-2.5191,-0.8092
41826,0.0442,0.0107,1.0508,0.0611,-2.6718,-0.8397
41836,0.0515,-0.0925,1.0425,-0.0153,-2.5496,-0.7328
41846,0.0459,0.0134,1.0347,0.1069,-2.4122,-0.7939
41856,0.0544,-0.0889,1.0598,0.1527,-2.4427,-0.8092
41869,0.0466,0.0083,1.0217,0.0458,-2.4885,-0.7786
41876,0.0488,-0.0894,1.0713,0.0153,-2.4885,-0.9160
41886,0.0461,0.0044,1.0127,0.2137,-2.5954,-0.8397
41896,0.0508,-0.0801,1.0750,0.1832,-2.4733,-0.9466
41906,0.0493,0.0002,0.9963,0.2137,-2.5038,-0.5649
41916,0.0488,-0.0786,1.0920,0.3206,-2.5191,-1.0229
41926,0.0491,-0.0090,0.9905,0.4580,-2.5649,-0.6412
41936,0.0508,-0.0605,1.0911,0.1221,-2.5496,-0.9008
41946,0.0522,-0.0161,0.9751,0.2901,-2.5649,-0.8550
41956,0.0469,-0.0564,1.1008,0.3969,-2.5496,-0.9313
41966,0.0498,-0.0254,0.9814,0.2901,-2.5038,-0.6260
41976,0.0479,-0.0442,1.1003,0.1069,-2.5191,-0.7939
41986,0.0522,-0.0349,0.9766,0.2443,-2.4275,-0.8244
41996,0.0452,-0.0374,1.1050,0.0611,-2.5954,-0.9771
42006,0.0513,-0.0476,0.9802,0.1679,-2.4427,-0.6107
42016,0.0449,-0.0232,1.1055,-0.1221,-2.4122,-0.8550
42026,0.0559,-0.0559,0.9766,0.1069,-2.4122,-0.7481
42036,0.0437,-0.0166,1.0962,0.1221,-2.4580,-0.9160
42046,0.0518,-0.0691,0.9919,0.0458,-2.4733,-0.7786
42056,0.0432,-0.0081,1.0947,0.1069,-2.5191,-0.7481
42066,0.0552,-0.0786,0.9927,0.2443,-2.4427,-0.8244
42076,0.0459,0.0000,1.0876,0.1527,-2.4733,-0.7786
42086,0.0527,-0.0837,1.0044,0.2595,-2.4733,-0.8092
42096,0.0425,0.0090,1.0774,0.2748,-2.5649,-0.8092
42106,0.0566,-0.0862,1.0156,0.2901,-2.4733,-0.9466
42116,0.0457,0.0078,1.0667,0.1985,-2.5344,-0.7023
42128,0.0508,-0.0283,0.9768,0.3359,-2.4580,-0.7176
42136,0.0449,-0.0383,1.1045,0.1985,-2.5496,-0.8397
42146,0.0510,-0.0464,0.9600,0.4885,-2.5191,-0.8550
42156,0.0491,-0.0300,1.1113,0.1679,-2.4885,-0.7176
42166,0.0505,-0.0667,0.9609,-0.4122,-2.4427,-0.9160
42176,0.0471,-0.0161,1.1157,1.3588,-2.9008,-0.9160
42186,0.0554,-0.0579,0.9807,-0.9771,-2.2748,-0.6718
42196,0.0393,-0.0190,1.0896,0.4275,-2.5802,-0.7786
42206,0.0530,-0.0598,0.9968,0.9008,-2.6260,-0.8550
42216,0.0408,-0.0193,1.0850,-1.1145,-2.3053,-0.8092
42226,0.0593,-0.0806,0.9983,1.2519,-2.6565,-0.9160
42236,0.0457,0.0042,1.0830,-0.0611,-2.5038,-0.7939
42246,0.0547,-0.0906,1.0051,0.2137,-2.4427,-0.8244
42256,0.0430,0.0129,1.0669,0.5191,-2.5802,-0.8702
42266,0.0552,-0.0923,1.0212,0.1985,-2.5038,-0.8397
42276,0.0439,0.0117,1.0554,0.5038,-2.6412,-0.9924
42286,0.0562,-0.0933,1.0369,0.0305,-2.5038,-0.8702
42296,0.0437,0.0142,1.0430,0.3053,-2.6260,-0.8397
42306,0.0554,-0.0864,1.0496,0.4122,-2.6260,-0.8855
42316,0.0466,0.0115,1.0293,-0.0305,-2.5038,-0.8092
42326,0.0542,-0.0891,1.0637,0.2901,-2.5649,-0.8550
42336,0.0437,0.0112,1.0208,0.3511,-2.5191,-0.8702
42346,0.0491,-0.0828,1.0684,-0.1527,-2.3664,-0.8550
42356,0.0476,0.0027,0.9966,0.2748,-2.5344,-0.6260
42366,0.0476,-0.0774,1.0938,0.1985,-2.5802,-0.8550
42376,0.0454,-0.0049,0.9910,0.0458,-2.4580,-0.8855
42388,0.0583,-0.0864,1.0095,0.3511,-2.4427,-0.7786
42396,0.0503,-0.0132,0.9854,0.2137,-2.4580,-0.7481
42406,0.0493,-0.0535,1.1025,0.0611,-2.4580,-0.9771
42417,0.0549,-0.0317,0.9800,0.2748,-2.4733,-0.7481
42426,0.0444,-0.0393,1.1064,0.1679,-2.6107,-0.8244
42436,0.0522,-0.0405,0.9751,0.1374,-2.4885,-0.7481
42446,0.0427,-0.0293,1.1055,0.3511,-2.5038,-0.9008
42456,0.0520,-0.0576,0.9834,0.3206,-2.4580,-0.7176
42466,0.0425,-0.0225,1.1003,0.1069,-2.5802,-0.7481
42476,0.0488,0.0061,1.0007,0.2595,-2.4885,-0.9160
42486,0.0491,-0.0767,1.0811,0.1069,-2.5038,-0.9466
42496,0.0476,-0.0005,0.9968,0.1069,-2.5496,-0.7481
42506,0.0513,-0.0654,1.0889,0.1527,-2.6412,-0.8092
42516,0.0513,-0.0107,0.9854,0.2290,-2.5496,-0.8855
42526,0.0476,-0.0554,1.0986,0.0763,-2.5649,-0.9008
42536,0.0532,-0.0237,0.9749,0.2748,-2.6412,-0.6718
42546,0.0493,-0.0408,1.1013,0.1985,-2.6260,-0.8244
42556,0.0515,-0.0369,0.9758,0.2137,-2.5191,-0.8855
42566,0.0447,-0.0369,1.1069,0.1679,-2.6565,-0.9771
42576,0.0537,-0.0498,0.9771,0.3969,-2.6718,-0.7634
42586,0.0381,-0.0220,1.1038,0.0153,-2.5649,-0.7634
42596,0.0566,-0.0640,0.9785,0.2137,-2.6107,-0.7786
42606,0.0442,-0.0063,1.0945,0.2901,-2.5496,-0.9008
42616,0.0549,-0.0752,0.9929,0.2290,-2.5496,-0.8244
42626,0.0435,0.0017,1.0823,0.1221,-2.5344,-0.7481
42636,0.0586,-0.0869,1.0061,0.2137,-2.4733,-0.7786
42646,0.0447,0.0110,1.0725,0.2443,-2.5802,-0.8550
42659,0.0505,-0.0298,0.9758,0.1985,-2.5038,-0.7328
42666,0.0420,0.0115,1.0554,0.0916,-2.5802,-0.7481
42676,0.0559,-0.0920,1.0476,0.1069,-2.4733,-0.7634
42686,0.0432,0.0100,1.0344,0.1985,-2.6260,-0.9160
42696,0.0537,-0.0881,1.0664,0.2290,-2.5344,-0.9618
42706,0.0481,0.0071,1.0205,0.1374,-2.5344,-0.8092
42716,0.0498,-0.0791,1.0747,0.1374,-2.5038,-0.9313
42726,0.0486,-0.0010,0.9907,0.2443,-2.4427,-0.7328
42736,0.0500,-0.0688,1.0938,0.1527,-2.5038,-0.7786
42746,0.0493,-0.0149,0.9851,0.2901,-2.4885,-0.6870
42756,0.0505,-0.0535,1.1001,0.2137,-2.5344,-0.8244
42766,0.0530,-0.0283,0.9700,0.3053,-2.5496,-0.7939
42776,0.0481,-0.0398,1.1060,0.2443,-2.6565,-0.9313
42786,0.0518,-0.0452,0.9785,0.2290,-2.5344,-0.6870
42796,0.0435,-0.0237,1.1064,0.1679,-2.6107,-0.8397
42806,0.0493,0.0103,1.0110,0.2595,-2.6107,-0.8092
42816,0.0503,-0.0818,1.0820,0.1679,-2.5649,-0.8702
42826,0.0461,0.0000,0.9978,0.2901,-2.5038,-0.7328
42836,0.0503,-0.0649,1.0918,0.2595,-2.5649,-0.8550
42846,0.0515,-0.0105,0.9788,0.1374,-2.5038,-0.6870
42856,0.0481,-0.0579,1.0967,0.1527,-2.5038,-0.8244
42866,0.0535,-0.0283,0.9780,0.3359,-2.5344,-0.7176
42876,0.0493,-0.0376,1.1008,0.0916,-2.5649,-0.8092
42886,0.0522,-0.0413,0.9797,0.2290,-2.5496,-0.8550
42896,0.0422,-0.0305,1.1045,0.2137,-2.6107,-0.9160
42909,0.0510,-0.0603,0.9795,0.3053,-2.4733,-0.8092
42916,0.0410,-0.0151,1.1040,0.2137,-2.4580,-0.8550
42926,0.0552,-0.0730,0.9854,0.2443,-2.5191,-0.6870
42936,0.0459,-0.0044,1.0908,0.2290,-2.5954,-0.7176
42946,0.0537,-0.0820,1.0056,0.2595,-2.5344,-0.7634
42956,0.0410,0.0037,1.0703,0.2137,-2.5954,-0.8550
42966,0.0586,-0.0872,1.0210,0.2137,-2.6107,-0.8550
42976,0.0427,0.0029,1.0520,-0.2595,-2.5496,-0.7481
42986,0.0564,-0.0911,1.0369,0.8397,-2.6412,-0.8397
42996,0.0471,0.0139,1.0464,-0.0763,-2.5649,-0.7634
43006,0.0522,-0.0945,1.0488,0.0763,-2.4580,-0.8244
43016,0.0488,0.0154,1.0266,0.5038,-2.5802,-0.8244
43026,0.0518,-0.0898,1.0686,-0.3206,-2.3359,-0.8702
43036,0.0474,0.0098,1.0122,0.6870,-2.6412,-0.7939
43046,0.0540,-0.0732,1.0842,0.0305,-2.5038,-0.8244
43056,0.0508,-0.0059,0.9895,0.2290,-2.5344,-0.6718
43066,0.0488,-0.0662,1.0925,0.2901,-2.6260,-0.8092
43076,0.0483,-0.0156,0.9802,0.2137,-2.5649,-0.5802
43086,0.0488,-0.0476,1.0986,0.3359,-2.6718,-0.7481
43096,0.0483,-0.0286,0.9788,0.2290,-2.5344,-0.8550
43106,0.0454,-0.0359,1.1079,0.1985,-2.5802,-0.8855
43116,0.0527,-0.0459,0.9802,0.3206,-2.5038,-0.8092
43126,0.0439,-0.0222,1.1101,0.0763,-2.5344,-0.7939
43136,0.0466,0.0120,1.0071,0.3817,-2.5802,-0.8244
43146,0.0510,-0.0835,1.0808,0.1832,-2.5496,-0.8702
43156,0.0449,0.0015,1.0002,0.0916,-2.5954,-0.7939
43166,0.0503,-0.0693,1.0852,0.3053,-2.5954,-0.9313
43178,0.0535,-0.0125,0.9771,0.3053,-2.5038,-0.8702
