timestamp_ms,ax,ay,az,gx,gy,gz
1456,0.0601,0.0071,1.0354,-0.8550,-2.4885,-0.9771
1460,0.0754,-0.0056,1.1216,-0.0305,-3.0229,-0.9924
1470,0.0635,-0.0461,1.0088,1.1298,-2.3664,-0.9008
1480,0.0747,-0.0112,1.0188,-0.0305,-2.6260,-1.2061
1490,0.0596,-0.0120,1.0911,0.6718,-2.9008,-0.8397
1500,0.0723,-0.0588,0.9939,0.6870,-2.4275,-0.6718
1510,0.0679,0.0115,1.0374,-0.4122,-2.7634,-0.7481
1520,0.0679,-0.0417,1.0791,0.6870,-2.6107,-1.0382
1530,0.0735,-0.0422,0.9937,0.1374,-2.5496,-0.9313
1540,0.0625,0.0137,1.0635,0.1832,-2.4580,-0.5496
1559,0.0659,-0.0232,0.9927,0.1985,-2.3817,-0.9924
1560,0.0659,-0.0232,0.9927,0.1985,-2.3817,-0.9924
1570,0.0625,-0.0430,1.0769,0.2748,-2.4580,-0.9618
1580,0.0681,-0.0437,0.9910,0.0763,-2.4427,-0.7939
1590,0.0647,0.0115,1.0718,0.2901,-2.6565,-0.8550
1600,0.0620,-0.0557,1.0569,0.3053,-2.5802,-1.0076
1610,0.0669,-0.0232,0.9963,0.0305,-2.4427,-0.9008
1620,0.0588,0.0029,1.0837,0.2901,-2.7481,-1.1298
1630,0.0657,-0.0645,1.0369,0.2748,-2.4885,-0.7786
1640,0.0654,-0.0017,0.9985,0.1985,-2.5496,-0.6260
1650,0.0559,-0.0154,1.0920,0.1679,-2.6718,-1.0229
1660,0.0679,-0.0610,1.0103,0.2748,-2.4733,-0.4733
1670,0.0635,0.0149,1.0271,0.2137,-2.5649,-1.1145
1680,0.0601,-0.0325,1.0850,0.1985,-2.5802,-0.5038
1690,0.0691,-0.0503,0.9944,0.2137,-2.5802,-1.0229
1700,0.0608,0.0156,1.0542,0.1985,-2.5191,-0.5191
1710,0.0605,-0.0537,1.0693,0.1374,-2.5954,-0.9466
1720,0.0669,-0.0288,0.9880,0.2137,-2.4275,-1.0534
1730,0.0603,0.0073,1.0808,0.1985,-2.6870,-0.3664
1740,0.0613,-0.0635,1.0469,0.2443,-2.5191,-1.0076
1750,0.0640,-0.0081,0.9963,0.2748,-2.4580,-0.9160
1760,0.0525,-0.0056,1.0908,0.1832,-2.6260,-0.0916
1770,0.0671,-0.0647,1.0210,0.1985,-2.4580,-0.3206
1780,0.0698,0.0088,1.0117,0.2748,-2.7328,-1.3130
1790,0.0586,-0.0244,1.0930,0.2137,-2.5802,-1.3740
1800,0.0669,-0.0571,0.9968,0.2595,-2.5344,-0.7634
1810,0.0591,0.0115,1.0386,0.2290,-2.5344,-0.4580
1820,0.0581,-0.0447,1.0815,0.1527,-2.5649,-0.2901
1830,0.0630,-0.0461,0.9907,0.2137,-2.4733,-0.3206
1840,0.0564,0.0149,1.0591,0.1832,-2.6565,-0.7939
1850,0.0603,-0.0527,1.0747,0.2443,-2.6260,-1.1603
1860,0.0610,-0.0300,0.9836,0.2443,-2.3817,-1.1450
1870,0.0552,0.0090,1.0732,0.1679,-2.6107,-0.3511
1880,0.0557,-0.0586,1.0586,0.2290,-2.6565,-0.6718
1890,0.0569,-0.0176,0.9912,0.3359,-2.4122,-0.5038
1900,0.0481,0.0022,1.0837,0.1221,-2.7481,-0.8244
1910,0.0564,-0.0608,1.0391,0.2595,-2.4580,-0.4885
1920,0.0469,0.0193,1.0415,0.2290,-2.4122,-0.7939
1930,0.0542,-0.0483,1.0784,0.1069,-2.7328,-1.2061
1940,0.0627,-0.0359,0.9929,0.2748,-2.5344,-0.8244
1951,0.0520,0.0176,1.0566,0.3359,-2.5344,-0.7786
1960,0.0579,-0.0579,1.0732,0.1679,-2.6718,-0.7176
1970,0.0571,-0.0286,0.9944,0.1832,-2.4275,-0.9618
1980,0.0479,0.0149,1.0652,0.2595,-2.5496,-0.8397
1990,0.0549,-0.0574,1.0649,0.1832,-2.6565,-0.6260
2000,0.0559,-0.0198,0.9895,0.1832,-2.5496,-0.6565
2015,0.0454,-0.0190,1.0918,0.4122,-2.6107,-0.7328
2020,0.0652,-0.0637,1.0586,0.1069,-2.5496,-1.0229
2030,0.0549,-0.0151,0.9905,0.1679,-2.4580,-0.9313
2040,0.0469,-0.0005,1.0813,0.2901,-2.5496,-0.8702
2050,0.0615,-0.0623,1.0479,0.1221,-2.6870,-0.7786
2060,0.0544,-0.0044,0.9915,0.2137,-2.5038,-0.5496
2070,0.0479,-0.0071,1.0859,0.3053,-2.4885,-0.7481
2080,0.0618,-0.0610,1.0364,0.1527,-2.6107,-0.7328
2090,0.0503,0.0056,0.9985,0.2443,-2.5191,-0.8397
2100,0.0481,-0.0151,1.0884,0.1221,-2.6412,-1.0534
2110,0.0625,-0.0623,1.0212,0.2748,-2.5496,-0.4733
2120,0.0530,0.0115,1.0046,0.4275,-2.5649,-0.6870
2130,0.0518,-0.0215,1.0876,0.1374,-2.6107,-0.6107
2140,0.0649,-0.0603,1.0120,0.0763,-2.5649,-0.7481
2150,0.0557,0.0127,1.0168,0.2290,-2.5954,-0.8092
2160,0.0503,-0.0293,1.0879,0.0458,-2.5038,-0.8397
2170,0.0593,-0.0569,1.0024,0.1679,-2.5496,-0.7481
2180,0.0508,0.0183,1.0249,0.4122,-2.5191,-0.9466
2190,0.0496,-0.0354,1.0881,0.2595,-2.5038,-1.0076
2201,0.0583,-0.0522,0.9993,0.3359,-2.5496,-0.8092
2210,0.0486,0.0173,1.0359,0.3053,-2.5038,-0.7481
2220,0.0525,-0.0417,1.0896,0.0611,-2.6718,-0.7176
2230,0.0571,-0.0454,0.9939,0.2290,-2.5649,-0.8855
2240,0.0513,0.0144,1.0518,0.1374,-2.5954,-0.5344
2250,0.0522,-0.0447,1.0818,0.0763,-2.6107,-0.8244
2260,0.0583,-0.0410,0.9893,0.2748,-2.4733,-0.9771
2270,0.0437,-0.0125,1.0881,0.1985,-2.4733,-0.9924
2280,0.0615,-0.0671,1.0251,0.3206,-2.6107,-1.0687
2290,0.0537,0.0085,1.0098,0.2901,-2.7176,-0.8855
2300,0.0439,-0.0186,1.0879,0.2748,-2.5191,-1.0076
2310,0.0645,-0.0618,1.0173,0.3359,-2.6260,-1.0840
2320,0.0540,0.0132,1.0129,0.3053,-2.6565,-1.0534
2330,0.0481,-0.0261,1.0886,0.2595,-2.4885,-0.9313
2340,0.0635,-0.0593,1.0122,0.2901,-2.7023,-0.9313
2350,0.0525,0.0173,1.0242,0.2748,-2.6260,-0.5802
2360,0.0481,-0.0315,1.0833,0.2443,-2.5191,-1.3130
2370,0.0618,-0.0562,1.0015,0.1679,-2.6870,-0.9924
2380,0.0510,0.0181,1.0317,0.2290,-2.5038,-0.8702
2390,0.0505,-0.0366,1.0815,0.1527,-2.5038,-0.9466
2400,0.0618,-0.0474,0.9995,0.1069,-2.5954,-1.0687
2410,0.0500,0.0183,1.0405,0.1832,-2.4733,-0.8244
2420,0.0518,-0.0439,1.0847,0.2137,-2.5191,-1.1908
2430,0.0605,-0.0474,1.0000,0.2137,-2.6107,-0.9008
2440,0.0486,0.0186,1.0464,0.3206,-2.5038,-1.3130
2451,0.0540,-0.0459,1.0825,0.1985,-2.7023,-0.9008
2460,0.0593,-0.0420,0.9932,0.1221,-2.5191,-0.7786
2470,0.0496,0.0156,1.0510,0.2443,-2.4122,-0.9466
2480,0.0547,-0.0483,1.0762,0.2137,-2.7481,-0.9466
2490,0.0610,-0.0388,0.9907,0.1527,-2.4275,-0.7328
2500,0.0479,0.0176,1.0583,0.1374,-2.5344,-0.7328
2510,0.0547,-0.0527,1.0764,0.2137,-2.7176,-0.9466
2520,0.0605,-0.0334,0.9890,0.2901,-2.4122,-0.8702
2530,0.0562,0.0137,1.0581,0.1679,-2.5802,-0.9008
2540,0.0571,-0.0547,1.0774,0.2748,-2.6260,-0.7328
2550,0.0581,-0.0300,0.9868,0.2748,-2.4275,-0.7328
2560,0.0513,0.0144,1.0679,0.1832,-2.6107,-0.4733
2570,0.0576,-0.0552,1.0723,0.1832,-2.6870,-1.0076
2580,0.0591,-0.0298,0.9902,0.3206,-2.5038,-0.7481
2590,0.0503,0.0146,1.0691,0.2290,-2.7023,-1.0840
2600,0.0557,-0.0552,1.0710,0.2137,-2.5649,-0.4885
2610,0.0598,-0.0269,0.9895,0.2748,-2.4275,-0.9466
2620,0.0540,0.0085,1.0732,0.1527,-2.5954,-0.7939
2630,0.0669,-0.0605,1.0088,0.1985,-2.7176,-0.9008
2640,0.0566,0.0161,1.0188,0.2137,-2.5954,-0.6260
2650,0.0496,-0.0251,1.0876,0.1985,-2.4733,-1.1908
2660,0.0640,-0.0588,1.0088,0.2290,-2.7023,-0.8702
2670,0.0520,0.0142,1.0227,0.2595,-2.5191,-0.9160
2680,0.0537,-0.0291,1.0847,0.2595,-2.5802,-1.0840
2690,0.0642,-0.0583,1.0044,0.2137,-2.7023,-0.4427
2701,0.0513,0.0164,1.0251,0.2901,-2.5191,-1.1603
2710,0.0542,-0.0342,1.0852,0.1221,-2.6412,-0.9466
2720,0.0610,-0.0571,1.0015,0.2290,-2.6260,-0.9160
2730,0.0503,0.0168,1.0239,0.2137,-2.3969,-0.5954
2740,0.0562,-0.0356,1.0835,0.2290,-2.6412,-0.8855
2750,0.0620,-0.0532,1.0015,0.2748,-2.6565,-0.3206
2760,0.0500,0.0156,1.0312,0.1527,-2.4427,-0.7634
2770,0.0554,-0.0354,1.0862,0.1985,-2.7023,-0.8702
2780,0.0645,-0.0532,1.0015,0.3053,-2.7023,-0.6718
2790,0.0583,0.0134,1.0288,0.1069,-2.4885,-0.6718
2800,0.0571,-0.0381,1.0906,0.1679,-2.6718,-1.0229
2810,0.0632,-0.0493,0.9963,0.2290,-2.6260,-0.9618
2820,0.0508,0.0142,1.0312,0.1679,-2.3969,-0.8092
2830,0.0554,-0.0359,1.0889,0.1679,-2.5954,-0.7634
2840,0.0618,-0.0527,0.9990,0.3206,-2.6565,-0.6565
2850,0.0552,0.0132,1.0391,0.2595,-2.5191,-0.5649
2860,0.0559,-0.0371,1.0835,0.1374,-2.5496,-0.7939
2870,0.0654,-0.0498,0.9944,0.2443,-2.6107,-1.0076
2880,0.0544,0.0181,1.0366,0.2443,-2.6107,-0.8702
2890,0.0554,-0.0374,1.0845,0.1832,-2.5802,-1.0992
2900,0.0620,-0.0500,0.9980,0.2901,-2.5802,-0.7176
2910,0.0566,0.0159,1.0425,0.2595,-2.6107,-0.9313
2920,0.0527,-0.0391,1.0840,0.1985,-2.5496,-1.0076
2930,0.0623,-0.0496,0.9961,0.2137,-2.4885,-0.7939
2940,0.0591,0.0137,1.0457,0.2443,-2.6565,-0.9924
2951,0.0649,-0.0635,1.0437,0.1679,-2.5496,-0.9618
2960,0.0625,-0.0510,0.9963,0.2595,-2.4580,-0.7328
2970,0.0566,0.0156,1.0447,0.1985,-2.6412,-0.9924
2980,0.0640,-0.0642,1.0471,0.2595,-2.5038,-0.9008
2990,0.0620,-0.0061,0.9922,0.2595,-2.5496,-0.7176
3000,0.0547,-0.0027,1.0872,0.1679,-2.6260,-0.9618
3010,0.0645,-0.0603,1.0408,0.2443,-2.5191,-0.9160
3025,0.0579,0.0173,1.0491,0.1679,-2.5649,-0.8244
3030,0.0527,-0.0073,1.0859,0.1527,-2.6107,-0.8092
3040,0.0662,-0.0618,1.0371,0.2595,-2.5649,-0.7481
3050,0.0601,-0.0024,0.9949,0.2748,-2.5038,-0.7786
3060,0.0532,-0.0071,1.0898,0.1679,-2.6870,-0.8550
3070,0.0676,-0.0605,1.0352,0.2595,-2.5496,-0.8855
3080,0.0642,0.0002,0.9978,0.3053,-2.5496,-0.8092
3090,0.0569,-0.0085,1.0938,0.1985,-2.6260,-0.8397
3100,0.0693,-0.0623,1.0303,0.2595,-2.5344,-0.7481
3110,0.0627,0.0015,0.9998,0.3053,-2.5954,-0.7634
3120,0.0552,-0.0105,1.0925,0.2443,-2.6870,-0.7939
3130,0.0662,-0.0620,1.0234,0.1374,-2.3511,-0.6718
3140,0.0632,0.0024,1.0007,0.1832,-2.5802,-0.8244
3150,0.0544,-0.0110,1.0925,0.2137,-2.6260,-0.9771
3160,0.0647,-0.0647,1.0222,0.1985,-2.4427,-0.8702
3170,0.0642,0.0024,1.0071,0.2137,-2.7023,-0.8855
3180,0.0559,-0.0088,1.0938,0.2443,-2.6718,-0.8855
3190,0.0671,-0.0642,1.0193,0.1985,-2.3969,-0.9160
3201,0.0623,0.0059,1.0056,0.2290,-2.7023,-0.8092
3210,0.0564,-0.0142,1.0940,0.2137,-2.6107,-0.8244
3220,0.0715,-0.0635,1.0173,0.2595,-2.4427,-0.8550
3230,0.0669,0.0068,1.0068,0.1832,-2.6565,-0.8855
3240,0.0547,-0.0142,1.0898,0.2290,-2.5802,-0.9008
3250,0.0676,-0.0601,1.0200,0.3664,-2.4275,-0.8550
3260,0.0623,0.0083,1.0105,0.1679,-2.6870,-0.9008
3270,0.0500,-0.0132,1.0862,0.1679,-2.6260,-0.7786
3280,0.0671,-0.0620,1.0183,0.3053,-2.4885,-0.6718
3290,0.0654,0.0056,1.0100,0.2290,-2.6412,-0.9008
3300,0.0532,-0.0149,1.0842,0.2443,-2.6107,-0.9313
3310,0.0654,-0.0640,1.0186,0.2137,-2.5802,-0.7939
3320,0.0535,0.0134,1.0652,0.1985,-2.5496,-0.9771
3330,0.0596,-0.0522,1.0737,0.1069,-2.7481,-0.7786
3340,0.0625,-0.0322,0.9907,0.2290,-2.5191,-0.6260
3350,0.0549,0.0137,1.0637,0.3053,-2.5496,-0.9466
3360,0.0569,-0.0508,1.0728,0.1374,-2.6870,-0.9466
3370,0.0620,-0.0317,0.9880,0.2595,-2.5191,-0.8702
3380,0.0549,0.0117,1.0715,0.3359,-2.5649,-0.7481
3390,0.0574,-0.0542,1.0725,0.1221,-2.6718,-0.9466
3400,0.0605,-0.0298,0.9858,0.2290,-2.4580,-0.6565
3410,0.0576,0.0159,1.0681,0.1985,-2.6107,-0.7939
3420,0.0564,-0.0537,1.0679,0.0916,-2.6412,-0.7786
3430,0.0601,-0.0273,0.9883,0.2443,-2.4733,-0.8550
3440,0.0552,0.0122,1.0750,0.1527,-2.6718,-0.8855
3451,0.0586,-0.0557,1.0657,0.1832,-2.5191,-0.9313
3460,0.0640,-0.0269,0.9854,0.1679,-2.4580,-0.9008
3470,0.0547,0.0139,1.0735,0.1527,-2.6260,-0.8397
3480,0.0574,-0.0554,1.0627,0.2595,-2.5344,-0.9008
3490,0.0640,-0.0283,0.9861,0.2901,-2.5344,-0.9313
3500,0.0525,0.0120,1.0745,0.1069,-2.6565,-1.0992
3510,0.0557,-0.0559,1.0647,0.3359,-2.5496,-1.0534
3520,0.0598,-0.0269,0.9885,0.2290,-2.5344,-1.0076
3530,0.0527,0.0098,1.0740,0.1374,-2.6565,-0.5954
3540,0.0596,-0.0537,1.0640,0.1679,-2.4580,-0.5344
3550,0.0637,-0.0251,0.9956,0.2137,-2.6107,-0.7481
3560,0.0544,0.0088,1.0698,0.2443,-2.6107,-0.8092
3570,0.0596,-0.0557,1.0630,0.2595,-2.5038,-0.8855
3580,0.0645,-0.0234,0.9922,0.2443,-2.5191,-1.0229
3590,0.0518,0.0085,1.0713,0.1985,-2.7023,-0.9924
3600,0.0601,-0.0591,1.0593,0.1985,-2.4580,-0.8397
3610,0.0684,-0.0244,0.9917,0.2901,-2.5496,-0.9160
3620,0.0503,0.0127,1.0688,0.2595,-2.6412,-0.8855
3630,0.0596,-0.0583,1.0608,0.1832,-2.5344,-0.8397
3640,0.0640,-0.0227,0.9934,0.2137,-2.5954,-0.9618
3650,0.0549,0.0134,1.0730,0.2748,-2.6107,-0.6870
3660,0.0591,-0.0571,1.0642,0.2290,-2.5344,-0.7328
3670,0.0552,0.0132,1.0261,0.2901,-2.5344,-0.7939
3680,0.0554,-0.0295,1.0898,0.1985,-2.5496,-0.8397
3690,0.0649,-0.0581,1.0088,0.2748,-2.6412,-0.5954
3701,0.0571,0.0132,1.0247,0.1985,-2.5802,-0.5954
3710,0.0547,-0.0281,1.0889,0.1527,-2.5344,-0.6107
3720,0.0662,-0.0581,1.0039,0.2595,-2.6565,-0.7328
3730,0.0601,0.0125,1.0229,0.2137,-2.6107,-0.6565
3740,0.0552,-0.0298,1.0874,0.1832,-2.5191,-0.7634
3750,0.0647,-0.0574,1.0061,0.1679,-2.6260,-0.8092
3760,0.0571,0.0142,1.0271,0.2290,-2.6718,-0.8092
3770,0.0552,-0.0303,1.0833,0.1679,-2.5038,-0.6870
3780,0.0637,-0.0547,0.9990,0.1679,-2.6260,-0.7634
3790,0.0547,0.0154,1.0344,0.2290,-2.6565,-0.7786
3800,0.0496,-0.0303,1.0808,0.1527,-2.4580,-0.8855
3810,0.0647,-0.0576,1.0081,0.2901,-2.5954,-0.6107
3820,0.0549,0.0178,1.0354,0.2290,-2.6412,-0.7786
3830,0.0496,-0.0308,1.0830,0.1527,-2.4427,-1.0534
3840,0.0647,-0.0588,1.0005,0.2290,-2.6565,-0.7939
3850,0.0544,0.0159,1.0356,0.2595,-2.5649,-1.0534
3860,0.0508,-0.0337,1.0803,0.1679,-2.5344,-0.8855
3870,0.0625,-0.0564,1.0042,0.2290,-2.6565,-0.7328
3880,0.0559,0.0164,1.0310,0.3359,-2.6412,-0.7634
3890,0.0540,-0.0322,1.0845,0.1985,-2.5038,-0.8550
3900,0.0662,-0.0547,1.0015,0.2137,-2.5954,-0.7481
3910,0.0547,0.0183,1.0332,0.2290,-2.5649,-0.8702
3920,0.0552,-0.0371,1.0808,0.2290,-2.5954,-0.9771
3930,0.0649,-0.0562,1.0059,0.1832,-2.6260,-0.5954
3940,0.0554,0.0166,1.0291,0.1985,-2.4733,-0.7786
3951,0.0537,-0.0349,1.0813,0.2137,-2.5496,-0.8855
3960,0.0652,-0.0557,1.0046,0.2748,-2.7023,-0.7939
3970,0.0554,0.0149,1.0332,0.2443,-2.4733,-0.7481
3980,0.0610,-0.0325,1.0872,0.2290,-2.5344,-0.7634
3990,0.0652,-0.0544,1.0037,0.3053,-2.7023,-0.7481
4000,0.0564,0.0112,1.0244,0.1985,-2.5344,-0.8855
4010,0.0615,-0.0291,1.0911,0.2137,-2.5954,-0.7328
4020,0.0701,-0.0200,0.9939,0.2137,-2.5191,-0.8550
4035,0.0581,-0.0317,1.0872,0.2137,-2.6107,-0.8244
4040,0.0576,-0.0613,1.0520,0.1985,-2.5191,-0.8397
4050,0.0662,-0.0234,0.9954,0.1069,-2.5344,-0.7481
4060,0.0542,0.0100,1.0752,0.2748,-2.6718,-0.8702
4070,0.0623,-0.0620,1.0571,0.1679,-2.4580,-0.9313
4080,0.0657,-0.0264,0.9949,0.1679,-2.5954,-0.8092
4090,0.0540,0.0115,1.0730,0.2443,-2.6565,-0.8397
4100,0.0625,-0.0593,1.0635,0.1679,-2.4733,-0.8244
4110,0.0671,-0.0266,0.9924,0.2290,-2.5649,-1.0076
4120,0.0564,0.0093,1.0696,0.1679,-2.6107,-0.8550
4130,0.0647,-0.0613,1.0649,0.1527,-2.6260,-0.8397
4140,0.0691,-0.0295,0.9966,0.1985,-2.4885,-0.6718
4150,0.0562,0.0103,1.0664,0.2290,-2.5191,-0.6718
4160,0.0618,-0.0569,1.0674,0.1985,-2.5649,-0.8550
4170,0.0657,-0.0288,0.9917,0.1527,-2.5649,-0.6565
4180,0.0520,0.0117,1.0637,0.1832,-2.5954,-0.7634
4190,0.0618,-0.0574,1.0686,0.2290,-2.6718,-0.8855
4201,0.0659,-0.0295,0.9902,0.3053,-2.5496,-0.7481
4210,0.0559,0.0098,1.0635,0.1985,-2.4427,-0.9924
4220,0.0645,-0.0554,1.0742,0.2290,-2.6718,-0.8397
4230,0.0657,-0.0322,0.9890,0.1985,-2.5496,-0.6260
4240,0.0547,0.0146,1.0591,0.2290,-2.5496,-0.8550
4250,0.0635,-0.0552,1.0759,0.1832,-2.6412,-0.6718
4260,0.0698,-0.0378,0.9941,0.2290,-2.4275,-0.6718
4270,0.0576,0.0122,1.0593,0.1985,-2.5038,-0.7786
4280,0.0652,-0.0527,1.0784,0.1527,-2.6870,-1.0076
4290,0.0671,-0.0337,0.9919,0.3053,-2.5191,-0.8092
4300,0.0603,0.0154,1.0537,0.2595,-2.5191,-0.8550
4310,0.0625,-0.0498,1.0747,0.1527,-2.6260,-0.9313
4320,0.0664,-0.0371,0.9885,0.2290,-2.5344,-0.7176
4330,0.0591,0.0129,1.0596,0.2137,-2.6260,-0.5191
4340,0.0623,-0.0525,1.0764,0.0763,-2.6412,-0.5496
4350,0.0652,-0.0359,0.9883,0.2443,-2.4580,-0.9160
4360,0.0576,0.0115,1.0635,0.1069,-2.6260,-0.9618
4370,0.0684,-0.0647,1.0234,0.3206,-2.6565,-0.9618
4380,0.0605,0.0049,1.0005,0.1985,-2.6260,-0.8244
4390,0.0518,-0.0146,1.0862,0.1374,-2.4427,-0.9618
4400,0.0698,-0.0649,1.0239,0.2901,-2.6412,-0.9008
4410,0.0620,0.0024,1.0027,0.1832,-2.6565,-0.8092
4420,0.0535,-0.0139,1.0828,0.1679,-2.4580,-0.8092
4430,0.0708,-0.0649,1.0288,0.2290,-2.5649,-1.0382
4440,0.0649,0.0032,0.9966,0.3511,-2.6565,-0.6107
4451,0.0527,-0.0117,1.0854,0.2137,-2.5496,-0.4733
4460,0.0681,-0.0596,1.0320,0.2290,-2.5649,-0.8397
4470,0.0559,0.0032,0.9983,0.2595,-2.5496,-0.8855
4480,0.0544,-0.0139,1.0850,0.1374,-2.5954,-0.8092
4490,0.0681,-0.0603,1.0303,0.1679,-2.6107,-0.8855
4500,0.0627,0.0024,1.0007,0.2595,-2.6260,-0.8397
4510,0.0549,-0.0115,1.0867,0.1069,-2.5802,-0.8244
4520,0.0688,-0.0627,1.0305,0.1832,-2.4885,-0.6718
4530,0.0623,-0.0027,0.9958,0.3359,-2.6107,-0.6718
4540,0.0571,-0.0098,1.0916,0.1374,-2.7328,-0.8550
4550,0.0632,-0.0623,1.0339,0.1832,-2.5344,-0.8397
4560,0.0596,-0.0022,0.9937,0.3359,-2.4885,-0.7176
4570,0.0562,-0.0039,1.0933,0.1221,-2.5954,-0.9160
4580,0.0647,-0.0632,1.0339,0.2443,-2.4580,-0.6107
4590,0.0632,-0.0090,0.9934,0.2290,-2.5649,-0.8244
4600,0.0586,-0.0059,1.0872,0.1221,-2.6870,-0.6565
4610,0.0625,-0.0664,1.0417,0.3206,-2.5038,-0.5649
4620,0.0640,-0.0125,0.9900,0.2290,-2.5038,-0.7939
4630,0.0583,0.0007,1.0857,0.1527,-2.6565,-0.7939
4640,0.0674,-0.0610,1.0442,0.3053,-2.4885,-0.6565
4650,0.0708,-0.0166,0.9888,0.1527,-2.5954,-0.9008
4660,0.0598,0.0012,1.0779,0.1527,-2.7939,-0.7786
4670,0.0657,-0.0632,1.0481,0.2901,-2.5496,-0.8397
4680,0.0679,-0.0251,0.9905,0.1679,-2.4733,-0.7481
4690,0.0583,0.0020,1.0740,0.1985,-2.6565,-0.8092
4701,0.0740,-0.0593,1.0071,0.1832,-2.6412,-0.9160
4710,0.0696,-0.0286,0.9895,0.2443,-2.4733,-0.8702
4720,0.0623,-0.0320,1.0903,0.1221,-2.5954,-0.9008
4730,0.0715,-0.0652,1.0112,0.2290,-2.5496,-0.7481
4740,0.0642,0.0071,1.0164,0.2901,-2.5802,-0.8092
4750,0.0620,-0.0298,1.0918,0.2290,-2.6412,-0.8092
4760,0.0706,-0.0659,1.0105,0.2595,-2.5649,-0.7634
4770,0.0654,0.0049,1.0095,0.3053,-2.5954,-0.6565
4780,0.0657,-0.0256,1.0889,0.2137,-2.5802,-0.9771
4790,0.0732,-0.0642,1.0164,0.3053,-2.5191,-0.9313
4800,0.0662,0.0029,1.0073,0.2137,-2.6107,-1.0076
4810,0.0623,-0.0178,1.0886,0.1832,-2.6260,-0.7786
4820,0.0686,-0.0671,1.0249,0.3206,-2.5038,-0.5649
4830,0.0710,-0.0076,1.0029,0.1679,-2.7481,-0.9618
4840,0.0610,-0.0146,1.0874,0.2290,-2.7023,-0.7328
4850,0.0725,-0.0647,1.0264,0.2901,-2.5191,-0.9771
4860,0.0750,-0.0127,0.9971,0.1985,-2.6718,-0.9618
4870,0.0576,-0.0110,1.0874,0.2443,-2.6107,-0.8092
4880,0.0762,-0.0688,1.0366,0.2748,-2.4733,-0.8092
4890,0.0701,-0.0120,0.9971,0.2443,-2.6260,-0.8397
4900,0.0593,-0.0090,1.0786,0.2443,-2.5649,-0.8397
4910,0.0718,-0.0662,1.0422,0.2443,-2.4885,-0.6412
4920,0.0732,-0.0151,0.9978,0.2443,-2.6870,-0.7176
4930,0.0601,-0.0044,1.0762,0.2137,-2.7176,-0.8702
4940,0.0725,-0.0637,1.0488,0.2290,-2.5496,-0.8550
4951,0.0703,-0.0117,0.9924,0.3359,-2.7023,-0.9008
4960,0.0588,0.0015,1.0710,0.1985,-2.6565,-0.8550
4970,0.0696,-0.0662,1.0491,0.1832,-2.5344,-0.7786
4980,0.0698,-0.0234,0.9980,0.2137,-2.5344,-0.7939
4990,0.0588,0.0027,1.0757,0.2443,-2.6107,-0.9618
5000,0.0684,-0.0684,1.0601,0.1985,-2.6412,-0.7786
5015,0.0669,0.0083,1.0220,0.1832,-2.6718,-1.0076
5020,0.0640,0.0056,1.0718,0.2290,-2.6718,-0.8702
5030,0.0762,-0.0642,1.0627,0.2137,-2.5954,-0.7786
5045,0.0737,0.0012,1.0208,0.1221,-2.6412,-0.7939
5050,0.0654,0.0056,1.0669,0.2595,-2.6260,-0.7939
5060,0.0798,-0.0667,1.0083,0.2443,-2.5191,-0.8092
5070,0.0732,0.0063,1.0183,0.0763,-2.6107,-0.9160
5080,0.0645,-0.0232,1.0850,0.2137,-2.5496,-0.7634
5090,0.0798,-0.0630,1.0173,0.2748,-2.6107,-0.8550
5100,0.0786,0.0039,1.0132,0.2137,-2.7023,-0.8855
5110,0.0657,-0.0208,1.0876,0.1832,-2.4733,-1.0076
5120,0.0774,-0.0664,1.0229,0.2748,-2.5954,-0.7481
5130,0.0752,0.0027,1.0054,0.2748,-2.7176,-0.9618
5140,0.0710,-0.0178,1.0869,0.1985,-2.4580,-0.6107
5150,0.0845,-0.0696,1.0205,0.1679,-2.6107,-0.8702
5160,0.0742,0.0020,1.0085,0.3053,-2.7481,-0.8092
5170,0.0610,-0.0142,1.0850,0.2137,-2.4885,-0.8855
5180,0.0789,-0.0686,1.0293,0.1527,-2.5954,-0.6565
5190,0.0696,0.0029,1.0015,0.2748,-2.5649,-0.8397
5201,0.0615,-0.0117,1.0825,0.1985,-2.4733,-1.0534
5210,0.0745,-0.0691,1.0293,0.1985,-2.5344,-0.9313
5220,0.0757,-0.0066,0.9939,0.2137,-2.6412,-0.7786
5230,0.0652,-0.0105,1.0806,0.1832,-2.6412,-0.8092
5240,0.0776,-0.0662,1.0403,0.2748,-2.5802,-0.8244
5250,0.0720,-0.0103,0.9900,0.1985,-2.6107,-0.8244
5260,0.0640,-0.0054,1.0835,0.2137,-2.6565,-0.5802
5270,0.0781,-0.0684,1.0461,0.2443,-2.5649,-0.4733
5280,0.0718,-0.0168,0.9915,0.2595,-2.4733,-0.7023
5290,0.0684,-0.0005,1.0774,0.1985,-2.6565,-0.7939
5300,0.0769,-0.0632,1.0493,0.1679,-2.5496,-0.8550
5310,0.0740,-0.0225,0.9893,0.2290,-2.4122,-1.0534
5320,0.0640,-0.0002,1.0764,0.2137,-2.6565,-0.9466
5330,0.0669,-0.0603,1.0608,0.1679,-2.6870,-0.9466
5340,0.0725,-0.0261,0.9897,0.2748,-2.4733,-0.7328
5350,0.0691,0.0059,1.0784,0.1832,-2.6565,-0.8092
5360,0.0676,-0.0591,1.0654,0.1985,-2.6412,-0.6260
5370,0.0718,-0.0356,0.9875,0.3206,-2.4580,-0.7023
5380,0.0618,0.0088,1.0686,0.1374,-2.6260,-0.6870
5390,0.0667,-0.0554,1.0688,0.1985,-2.5191,-0.7176
5400,0.0723,-0.0386,0.9944,0.3053,-2.4733,-0.7481
5410,0.0647,0.0081,1.0630,0.1679,-2.6412,-0.9160
5420,0.0776,-0.0681,1.0249,0.2748,-2.6107,-0.7786
5430,0.0630,0.0000,0.9988,0.2443,-2.6107,-0.7786
5440,0.0581,-0.0190,1.0879,0.2137,-2.5496,-0.6870
5451,0.0693,-0.0657,1.0334,0.2443,-2.6260,-0.5954
5460,0.0698,-0.0125,0.9958,0.1985,-2.6260,-0.6107
5470,0.0601,-0.0144,1.0840,0.2290,-2.6718,-0.8092
5480,0.0723,-0.0664,1.0396,0.2443,-2.6565,-0.9618
5490,0.0676,-0.0181,0.9905,0.2443,-2.5191,-0.7176
5500,0.0625,-0.0093,1.0837,0.1832,-2.6565,-0.9924
5510,0.0701,-0.0654,1.0552,0.2290,-2.5649,-1.0076
5520,0.0654,-0.0237,0.9849,0.2748,-2.5496,-0.7634
5530,0.0583,-0.0022,1.0759,0.1374,-2.6718,-0.6565
5540,0.0635,-0.0654,1.0618,0.2443,-2.5344,-0.9008
5550,0.0691,-0.0342,0.9890,0.2443,-2.5038,-0.6565
5560,0.0588,0.0024,1.0735,0.0611,-2.6260,-0.6718
5570,0.0627,-0.0635,1.0688,0.1985,-2.4733,-0.9313
5580,0.0713,-0.0427,0.9902,0.3206,-2.4885,-1.0229
5590,0.0608,0.0024,1.0593,0.1832,-2.5954,-1.0229
5600,0.0596,-0.0552,1.0767,0.1985,-2.4733,-0.7939
5610,0.0703,-0.0515,0.9905,0.3053,-2.4885,-0.5344
5620,0.0579,0.0117,1.0500,0.1832,-2.5191,-0.7328
5630,0.0581,-0.0513,1.0769,0.2748,-2.5038,-0.8855
5640,0.0715,-0.0613,1.0007,0.1832,-2.5649,-0.8855
5650,0.0627,0.0073,1.0330,0.2137,-2.5954,-0.8397
5660,0.0562,-0.0417,1.0764,0.2137,-2.4122,-0.9924
5670,0.0688,-0.0613,1.0068,0.1069,-2.6107,-0.7481
5680,0.0596,0.0090,1.0256,0.2137,-2.5496,-0.7939
5690,0.0540,-0.0308,1.0854,0.1985,-2.4580,-0.6870
5701,0.0664,-0.0674,1.0146,0.1374,-2.5496,-0.5954
5710,0.0608,0.0051,1.0068,0.3053,-2.6565,-0.5344
5720,0.0588,-0.0276,1.0847,0.1832,-2.5344,-0.7023
5730,0.0710,-0.0693,1.0261,0.1679,-2.6565,-0.4580
5740,0.0635,0.0007,0.9976,0.2443,-2.5496,-0.7023
5750,0.0564,-0.0117,1.0889,0.2443,-2.6107,-0.8702
5760,0.0679,-0.0664,1.0400,0.2595,-2.5649,-0.9008
5770,0.0576,0.0107,1.0432,0.1679,-2.5649,-0.7634
5780,0.0569,-0.0410,1.0825,0.1374,-2.5954,-0.6260
5790,0.0664,-0.0588,1.0029,0.1832,-2.5802,-0.6260
5800,0.0603,0.0068,1.0232,0.1985,-2.5191,-0.7328
5810,0.0554,-0.0286,1.0850,0.2443,-2.4275,-0.7786
5820,0.0676,-0.0664,1.0129,0.1527,-2.5344,-0.8397
5830,0.0632,0.0066,1.0110,0.1832,-2.5649,-0.7481
5840,0.0564,-0.0186,1.0881,0.1985,-2.4427,-0.9313
5850,0.0696,-0.0715,1.0232,0.1221,-2.5496,-0.9160
5860,0.0632,0.0024,1.0017,0.2595,-2.6565,-0.7481
5870,0.0552,-0.0146,1.0857,0.1832,-2.5191,-0.7328
5880,0.0684,-0.0708,1.0408,0.1221,-2.6412,-0.7786
5890,0.0630,-0.0137,0.9912,0.2290,-2.6412,-0.8550
5900,0.0562,-0.0027,1.0796,0.2443,-2.6260,-0.7939
5910,0.0662,-0.0657,1.0527,0.1832,-2.5649,-0.8855
5920,0.0620,-0.0247,0.9883,0.2290,-2.3969,-0.4733
5930,0.0569,0.0017,1.0798,0.1832,-2.5954,-0.6565
5940,0.0632,-0.0630,1.0679,0.1679,-2.6107,-0.8397
5951,0.0625,-0.0334,0.9846,0.1527,-2.3817,-0.7481
5960,0.0571,0.0083,1.0684,0.1527,-2.6260,-0.8702
5970,0.0632,-0.0557,1.0715,0.1832,-2.7023,-0.9771
5980,0.0667,-0.0413,0.9924,0.2443,-2.4733,-0.8244
5990,0.0562,0.0090,1.0552,0.1221,-2.5496,-0.8244
6000,0.0564,-0.0439,1.0815,0.2290,-2.7023,-0.7634
6010,0.0645,-0.0571,0.9954,0.3053,-2.5649,-0.7328
6020,0.0613,0.0078,1.0352,0.1679,-2.5191,-0.7023
6030,0.0605,-0.0383,1.0835,0.1832,-2.5344,-0.7176
6040,0.0698,-0.0630,1.0007,0.2137,-2.5954,-0.9160
6055,0.0566,0.0005,1.0698,0.2137,-2.6565,-0.6718
6060,0.0583,-0.0286,1.0837,0.1832,-2.6107,-0.7176
6070,0.0706,-0.0718,1.0142,0.2290,-2.6107,-1.0382
6080,0.0596,0.0027,1.0083,0.2137,-2.7023,-0.9008
6090,0.0540,-0.0200,1.0815,0.1527,-2.4733,-0.9771
6100,0.0728,-0.0735,1.0273,0.1832,-2.5038,-1.0076
6110,0.0657,-0.0059,0.9976,0.1679,-2.6412,-0.9008
6120,0.0500,-0.0134,1.0764,0.2901,-2.5802,-0.8702
6130,0.0640,-0.0583,0.9966,0.3053,-2.5038,-0.6260
6140,0.0579,0.0068,1.0322,0.1527,-2.5802,-0.8244
6150,0.0569,-0.0369,1.0850,0.1679,-2.6412,-0.8855
6160,0.0654,-0.0649,1.0061,0.2443,-2.5954,-0.7939
6170,0.0603,0.0042,1.0200,0.1069,-2.5191,-0.7786
6180,0.0552,-0.0269,1.0874,0.2595,-2.5038,-0.9008
6190,0.0674,-0.0691,1.0144,0.2137,-2.4885,-0.9008
6201,0.0608,-0.0007,1.0103,0.1527,-2.6565,-0.8397
6210,0.0540,-0.0181,1.0859,0.2290,-2.5344,-0.9160
6220,0.0679,-0.0701,1.0242,0.2137,-2.5649,-0.9618
6230,0.0630,-0.0066,1.0010,0.1832,-2.7481,-0.9924
6240,0.0520,-0.0081,1.0801,0.2137,-2.6107,-0.9924
6250,0.0671,-0.0764,1.0408,0.1985,-2.5191,-0.8092
6260,0.0688,-0.0237,0.9968,0.2748,-2.6107,-0.8244
6270,0.0532,-0.0017,1.0774,0.2748,-2.5649,-0.9313
6280,0.0684,-0.0671,1.0569,0.1679,-2.5038,-0.8855
6290,0.0674,-0.0247,0.9915,0.2443,-2.5344,-0.8092
6300,0.0579,0.0037,1.0652,0.2595,-2.6565,-0.7176
6310,0.0625,-0.0654,1.0667,0.1985,-2.6412,-0.7939
6320,0.0657,-0.0339,0.9885,0.3053,-2.4885,-0.5954
6330,0.0562,0.0071,1.0603,0.2137,-2.4733,-0.6870
6340,0.0618,-0.0610,1.0750,0.1527,-2.6107,-1.0076
6350,0.0676,-0.0417,0.9893,0.2290,-2.3969,-0.8092
6360,0.0579,0.0129,1.0527,0.2595,-2.4885,-0.6718
6370,0.0623,-0.0503,1.0825,0.1985,-2.6870,-0.9313
6380,0.0698,-0.0493,0.9951,0.2290,-2.5038,-0.9313
6390,0.0618,0.0112,1.0417,0.2443,-2.4885,-0.7023
6400,0.0659,-0.0493,1.0862,0.1374,-2.6718,-0.6870
6410,0.0710,-0.0554,0.9963,0.2901,-2.5344,-0.8092
6420,0.0664,0.0095,1.0349,0.1832,-2.5344,-0.8550
6430,0.0642,-0.0356,1.0925,0.1679,-2.5954,-0.7481
6440,0.0723,-0.0637,1.0012,0.3359,-2.6412,-0.6870
6451,0.0615,0.0037,1.0674,0.1985,-2.6107,-0.7328
6460,0.0593,-0.0308,1.0896,0.1527,-2.5802,-0.7634
6470,0.0779,-0.0662,1.0083,0.3053,-2.6107,-0.7939
6480,0.0632,0.0044,1.0586,0.2443,-2.5802,-0.7023
6490,0.0684,-0.0615,1.0747,0.1679,-2.7786,-1.0076
6500,0.0708,-0.0405,0.9885,0.2290,-2.4733,-0.7786
6510,0.0627,0.0083,1.0508,0.2443,-2.4885,-0.6412
6520,0.0696,-0.0535,1.0789,0.1832,-2.7023,-0.6565
6530,0.0732,-0.0530,0.9966,0.2595,-2.4733,-0.9466
6540,0.0649,0.0083,1.0415,0.2901,-2.4427,-0.8702
6550,0.0649,-0.0435,1.0818,0.2137,-2.6565,-0.7786
6560,0.0728,-0.0559,0.9966,0.2137,-2.5038,-0.6260
6570,0.0615,0.0027,1.0264,0.1832,-2.4733,-1.0382
6580,0.0620,-0.0371,1.0947,0.1221,-2.6260,-0.9160
6590,0.0679,-0.0664,1.0010,0.1679,-2.5191,-0.7634
6600,0.0667,0.0034,1.0154,0.2443,-2.5954,-0.7481
6610,0.0642,-0.0276,1.0918,0.1985,-2.5954,-0.6565
6620,0.0732,-0.0664,1.0171,0.2748,-2.5191,-0.8244
6630,0.0652,0.0005,1.0085,0.1832,-2.6260,-0.9466
6640,0.0547,-0.0164,1.0918,0.1527,-2.5954,-0.9618
6650,0.0701,-0.0691,1.0317,0.3206,-2.5344,-0.8092
6660,0.0696,-0.0093,1.0015,0.1679,-2.6870,-0.7634
6670,0.0557,-0.0144,1.0786,0.1985,-2.6260,-0.6870
6680,0.0684,-0.0703,1.0422,0.2748,-2.4885,-0.6565
6690,0.0686,-0.0193,0.9978,0.1985,-2.6718,-0.6260
6701,0.0566,-0.0034,1.0732,0.2137,-2.6412,-0.5954
6710,0.0657,-0.0696,1.0576,0.2443,-2.4122,-0.5954
6720,0.0688,-0.0344,0.9946,0.2443,-2.5649,-0.8550
6730,0.0583,0.0029,1.0662,0.2748,-2.6718,-0.4733
6740,0.0615,-0.0659,1.0750,0.1374,-2.5191,-0.9466
6750,0.0691,-0.0417,0.9915,0.2137,-2.5802,-0.7634
6760,0.0564,0.0085,1.0518,0.2290,-2.5496,-0.9771
6770,0.0579,-0.0542,1.0825,0.0916,-2.5802,-0.9771
6780,0.0679,-0.0500,0.9966,0.1679,-2.5954,-0.7786
6790,0.0557,0.0120,1.0405,0.3053,-2.4275,-0.3511
6800,0.0583,-0.0391,1.0906,0.1832,-2.5802,-0.7634
6810,0.0669,-0.0615,1.0010,0.1527,-2.6565,-1.0076
6820,0.0583,0.0073,1.0173,0.1679,-2.5038,-0.8550
6830,0.0535,-0.0327,1.0930,0.1374,-2.6718,-0.7328
6840,0.0701,-0.0374,0.9980,0.2748,-2.5496,-0.6718
6850,0.0527,0.0112,1.0586,0.2290,-2.5649,-0.6412
6860,0.0579,-0.0493,1.0784,0.1374,-2.6260,-1.0534
6870,0.0718,-0.0588,0.9998,0.2137,-2.6260,-0.9008
6880,0.0596,0.0107,1.0354,0.2901,-2.4733,-0.4427
6890,0.0562,-0.0447,1.0857,0.1985,-2.5496,-1.0840
6900,0.0688,-0.0620,1.0039,0.2290,-2.6870,-1.0076
6910,0.0598,0.0078,1.0183,0.3511,-2.4580,-0.6870
6920,0.0603,-0.0312,1.0854,0.2137,-2.5649,-0.6870
6930,0.0676,-0.0703,1.0156,0.1985,-2.5802,-1.0229
6940,0.0630,-0.0032,1.0015,0.3053,-2.7176,-0.8550
6951,0.0542,-0.0168,1.0889,0.2137,-2.6260,-0.6107
6960,0.0674,-0.0693,1.0320,0.2443,-2.5954,-0.9160
6970,0.0649,-0.0144,0.9946,0.2443,-2.4885,-0.8702
6980,0.0564,-0.0076,1.0801,0.1221,-2.6565,-0.5038
6990,0.0627,-0.0713,1.0513,0.2443,-2.5496,-0.8244
7000,0.0676,-0.0312,0.9875,0.2443,-2.4427,-0.9618
7010,0.0593,-0.0002,1.0732,0.2290,-2.6718,-0.6565
7020,0.0608,-0.0579,1.0725,0.2901,-2.4580,-0.7634
7030,0.0662,-0.0442,0.9924,0.3206,-2.5191,-1.0076
7040,0.0571,0.0049,1.0605,0.2137,-2.5954,-0.6107
7050,0.0586,-0.0510,1.0767,0.2748,-2.6565,-0.8397
7065,0.0688,-0.0183,0.9917,0.3053,-2.5802,-0.7786
7070,0.0615,0.0061,1.0337,0.2748,-2.6107,-0.5496
7080,0.0569,-0.0398,1.0825,0.2595,-2.5954,-1.0382
7090,0.0669,-0.0659,1.0093,0.1985,-2.5954,-0.9313
7100,0.0601,0.0029,1.0156,0.2137,-2.6412,-0.3053
7110,0.0564,-0.0281,1.0813,0.2443,-2.3969,-0.9466
7120,0.0698,-0.0718,1.0288,0.2595,-2.6565,-0.7634
7130,0.0610,-0.0054,0.9983,0.2137,-2.5954,-0.5191
7140,0.0588,-0.0132,1.0776,0.1069,-2.5496,-0.8702
7150,0.0684,-0.0713,1.0464,0.1985,-2.5496,-0.6412
7160,0.0674,-0.0212,0.9915,0.1679,-2.5191,-0.8397
7170,0.0527,-0.0027,1.0779,0.1832,-2.5802,-0.9924
7180,0.0652,-0.0671,1.0693,0.1679,-2.5954,-0.4733
7190,0.0630,0.0000,1.0107,0.1527,-2.7481,-0.6870
7201,0.0554,-0.0205,1.0840,0.1985,-2.4275,-1.0229
7210,0.0681,-0.0752,1.0298,0.2290,-2.5344,-1.0076
7220,0.0645,-0.0105,0.9956,0.1985,-2.6565,-0.5496
7230,0.0520,-0.0071,1.0750,0.2137,-2.6412,-0.6107
7240,0.0703,-0.0688,1.0488,0.2595,-2.4733,-1.0992
7250,0.0654,-0.0232,0.9927,0.2748,-2.5954,-0.6718
7260,0.0547,0.0032,1.0703,0.1985,-2.5496,-0.5038
7270,0.0630,-0.0632,1.0676,0.1679,-2.6412,-0.9466
7280,0.0657,-0.0376,0.9917,0.2901,-2.4427,-0.9008
7290,0.0532,0.0044,1.0518,0.1679,-2.5649,-0.6107
7300,0.0642,-0.0610,1.0764,0.1679,-2.5802,-0.8397
7310,0.0645,-0.0535,0.9937,0.2901,-2.6107,-0.9924
7320,0.0586,0.0085,1.0408,0.1832,-2.4275,-0.6107
7330,0.0605,-0.0432,1.0876,0.1527,-2.6718,-0.6107
7340,0.0654,-0.0588,1.0017,0.3053,-2.5191,-0.9313
7350,0.0593,0.0051,1.0188,0.2290,-2.6260,-0.7328
7360,0.0566,-0.0312,1.0903,0.1832,-2.5191,-0.5038
7370,0.0657,-0.0686,1.0122,0.2443,-2.5954,-1.0229
7380,0.0652,-0.0051,1.0061,0.2443,-2.5802,-1.0382
7390,0.0579,-0.0225,1.0896,0.1527,-2.6260,-0.5802
7400,0.0640,-0.0713,1.0295,0.1985,-2.4122,-0.7634
7410,0.0667,-0.0146,0.9954,0.2137,-2.6870,-0.9313
7420,0.0564,-0.0076,1.0828,0.1374,-2.6260,-0.6565
7430,0.0627,-0.0676,1.0454,0.2137,-2.4733,-0.6260
7440,0.0679,-0.0244,0.9944,0.1832,-2.5191,-1.2061
7451,0.0562,0.0007,1.0769,0.1985,-2.7023,-0.6870
7460,0.0588,-0.0662,1.0671,0.2595,-2.5496,-0.5038
7470,0.0659,-0.0430,0.9958,0.0916,-2.5802,-0.9313
7480,0.0549,0.0103,1.0535,0.2290,-2.4275,-0.8550
7490,0.0593,-0.0581,1.0737,0.2290,-2.6412,-0.6107
7500,0.0674,-0.0571,1.0015,0.1527,-2.6565,-1.1756
7510,0.0554,0.0078,1.0425,0.2137,-2.4733,-0.9008
7520,0.0571,-0.0427,1.0874,0.1527,-2.5954,-0.6107
7530,0.0701,-0.0647,1.0046,0.1832,-2.6870,-0.9771
7540,0.0569,0.0022,1.0710,0.2137,-2.6565,-0.9924
7550,0.0598,-0.0627,1.0667,0.1374,-2.4885,-0.7023
7560,0.0669,-0.0415,0.9917,0.2595,-2.4427,-0.5344
7570,0.0557,0.0066,1.0603,0.1985,-2.5649,-0.6870
7580,0.0605,-0.0596,1.0732,0.2290,-2.5191,-0.9466
7590,0.0688,-0.0522,0.9956,0.1832,-2.6565,-1.0229
7601,0.0591,0.0112,1.0408,0.2137,-2.5038,-0.5649
7610,0.0588,-0.0430,1.0803,0.2137,-2.6565,-0.6107
7620,0.0662,-0.0627,1.0029,0.2137,-2.5802,-0.9008
7630,0.0601,0.0073,1.0232,0.1374,-2.5344,-0.9313
7640,0.0535,-0.0337,1.0852,0.2901,-2.5344,-0.4580
7650,0.0696,-0.0706,1.0166,0.2137,-2.7328,-0.8244
7660,0.0596,0.0020,1.0044,0.1985,-2.5038,-0.8550
7670,0.0554,-0.0217,1.0901,0.2290,-2.5191,-0.5344
7680,0.0696,-0.0713,1.0334,0.1679,-2.5649,-1.1756
7690,0.0625,-0.0098,0.9941,0.2595,-2.5496,-0.2137
7700,0.0562,-0.0100,1.0823,0.1679,-2.6870,-1.0840
7710,0.0664,-0.0681,1.0583,0.1985,-2.4885,-0.5649
7720,0.0647,-0.0251,0.9846,0.3359,-2.4580,-0.6107
7730,0.0571,-0.0007,1.0737,0.1221,-2.7176,-0.9618
7740,0.0605,-0.0625,1.0667,0.1221,-2.6107,-0.4580
7750,0.0681,-0.0420,0.9897,0.3053,-2.3969,-1.0076
7760,0.0564,0.0039,1.0583,0.1374,-2.5954,-0.6107
7770,0.0591,-0.0547,1.0762,0.1679,-2.5649,-0.6107
7780,0.0693,-0.0566,0.9983,0.2443,-2.5802,-1.0687
7790,0.0610,0.0049,1.0425,0.1374,-2.5191,-0.5191
7800,0.0601,-0.0339,1.0808,0.2137,-2.5191,-0.8092
7810,0.0657,-0.0637,1.0024,0.2137,-2.5496,-0.8244
7820,0.0593,0.0068,1.0193,0.1985,-2.6107,-0.6107
7830,0.0576,-0.0217,1.0857,0.2595,-2.5191,-0.9313
7840,0.0684,-0.0706,1.0188,0.1679,-2.3969,-0.9160
7850,0.0662,-0.0049,1.0044,0.1985,-2.7023,-0.6718
7860,0.0500,-0.0129,1.0837,0.2443,-2.5802,-1.2214
7870,0.0662,-0.0723,1.0383,0.1374,-2.4733,-0.4733
7880,0.0642,-0.0146,0.9988,0.2595,-2.6870,-0.7328
7890,0.0588,-0.0344,1.0896,0.1527,-2.5954,-1.0840
7900,0.0649,-0.0645,1.0071,0.2901,-2.6412,-0.9466
7910,0.0610,0.0024,1.0149,0.2137,-2.5344,-0.4275
7920,0.0566,-0.0237,1.0903,0.1985,-2.4580,-0.9771
7930,0.0664,-0.0698,1.0215,0.3053,-2.4122,-0.9313
7940,0.0640,-0.0063,1.0068,0.2137,-2.7786,-0.4122
7950,0.0540,-0.0100,1.0837,0.1679,-2.5954,-0.9466
7960,0.0623,-0.0691,1.0430,0.1985,-2.4122,-0.8702
7970,0.0693,-0.0200,0.9985,0.1221,-2.5191,-0.4580
7980,0.0513,0.0051,1.0789,0.2595,-2.5954,-1.0687
7990,0.0613,-0.0667,1.0593,0.1374,-2.4885,-0.9160
8000,0.0681,-0.0347,0.9927,0.1985,-2.6107,-0.5649
8010,0.0547,0.0085,1.0608,0.2901,-2.6565,-0.8702
8020,0.0593,-0.0591,1.0735,0.1985,-2.5344,-1.1756
8030,0.0684,-0.0479,0.9910,0.1985,-2.5954,-0.6565
8040,0.0554,0.0100,1.0444,0.2595,-2.5038,-0.5344
8050,0.0596,-0.0486,1.0842,0.1374,-2.7023,-1.1450
8060,0.0676,-0.0569,1.0083,0.2290,-2.4733,-0.8855
8073,0.0552,0.0015,1.0830,0.1679,-2.7328,-0.8397
8080,0.0557,-0.0376,1.0928,0.2137,-2.5496,-1.1450
8090,0.0686,-0.0647,1.0076,0.3053,-2.7023,-0.7481
8100,0.0583,0.0022,1.0078,0.2137,-2.4733,-0.4122
8110,0.0549,-0.0229,1.0872,0.1832,-2.5496,-1.0992
8120,0.0696,-0.0664,1.0259,0.2443,-2.5954,-0.6718
8130,0.0649,-0.0071,0.9946,0.2443,-2.6260,-0.5344
8140,0.0542,-0.0134,1.0862,0.1221,-2.6870,-1.2519
8150,0.0654,-0.0640,1.0459,0.1832,-2.3511,-0.6260
8160,0.0684,-0.0251,0.9949,0.1985,-2.5344,-1.2061
8170,0.0601,0.0027,1.0779,0.1221,-2.7023,-0.8702
8180,0.0608,-0.0620,1.0623,0.1985,-2.3817,-0.6107
8190,0.0674,-0.0386,0.9912,0.2290,-2.4580,-0.8702
8200,0.0591,0.0054,1.0640,0.1832,-2.6260,-0.3511
8210,0.0603,-0.0525,1.0715,0.1985,-2.5496,-1.0840
8220,0.0688,-0.0557,0.9990,0.2137,-2.5802,-0.5344
8230,0.0586,0.0078,1.0432,0.1679,-2.6107,-1.0992
8240,0.0637,-0.0725,1.0566,0.1679,-2.5496,-0.6565
8250,0.0664,-0.0322,0.9868,0.1985,-2.3969,-1.1603
8260,0.0613,-0.0029,1.0706,0.0611,-2.6565,-0.6107
8270,0.0615,-0.0610,1.0740,0.1527,-2.7786,-1.2214
8280,0.0696,-0.0459,0.9944,0.2290,-2.4885,-0.2290
8290,0.0613,0.0046,1.0549,0.1832,-2.4733,-1.2519
8300,0.0581,-0.0479,1.0786,0.2137,-2.5649,-0.5191
8310,0.0674,-0.0593,0.9983,0.2443,-2.5649,-1.1145
8320,0.0618,0.0024,1.0315,0.2443,-2.5954,-0.7176
8330,0.0586,-0.0371,1.0852,0.1832,-2.5954,-0.5344
8340,0.0696,-0.0713,1.0117,0.2290,-2.5496,-1.4351
8350,0.0647,-0.0020,1.0117,0.2901,-2.5954,-0.3969
8360,0.0571,-0.0193,1.0803,0.2290,-2.4733,-1.0229
8370,0.0662,-0.0745,1.0286,0.1832,-2.5649,-1.0992
8380,0.0662,-0.0142,0.9966,0.2443,-2.6412,-0.2901
8390,0.0527,-0.0046,1.0742,0.2443,-2.6718,-1.1756
8400,0.0696,-0.0706,1.0637,0.1374,-2.5496,-0.5038
8410,0.0720,-0.0308,0.9937,0.2595,-2.4885,-0.7939
8420,0.0564,0.0073,1.0654,0.2137,-2.5649,-0.6260
8430,0.0630,-0.0632,1.0771,0.1069,-2.6870,-0.7786
8440,0.0698,-0.0469,0.9907,0.2137,-2.4733,-1.0382
8450,0.0593,0.0076,1.0398,0.2901,-2.5038,-0.6107
8460,0.0625,-0.0503,1.0894,0.1221,-2.7023,-1.2672
8470,0.0681,-0.0576,1.0010,0.2290,-2.5191,-0.4275
8480,0.0601,0.0037,1.0203,0.2901,-2.4885,-1.2519
8490,0.0625,-0.0342,1.0894,0.1832,-2.6718,-0.4122
8500,0.0688,-0.0691,1.0159,0.2901,-2.5344,-1.0840
8510,0.0620,-0.0059,1.0022,0.2595,-2.5344,-0.8855
8520,0.0564,-0.0190,1.0862,0.1527,-2.6107,-0.8244
8530,0.0657,-0.0720,1.0371,0.3359,-2.3969,-1.0840
8540,0.0674,-0.0227,0.9927,0.2748,-2.5649,-0.3053
8550,0.0598,-0.0027,1.0791,0.1221,-2.7786,-1.2519
8560,0.0657,-0.0657,1.0625,0.2290,-2.4580,-0.5954
8570,0.0730,-0.0410,0.9939,0.2137,-2.4427,-0.6870
8580,0.0544,0.0051,1.0576,0.1679,-2.5802,-1.2061
8590,0.0681,-0.0686,1.0325,0.1832,-2.5191,-0.7176
8600,0.0645,-0.0171,0.9932,0.2290,-2.5649,-1.1908
8610,0.0562,-0.0039,1.0823,0.1832,-2.7481,-0.5496
8620,0.0647,-0.0659,1.0586,0.1985,-2.4427,-1.0076
8630,0.0662,-0.0378,0.9929,0.2290,-2.4885,-1.0382
8640,0.0610,0.0039,1.0701,0.1985,-2.6260,-0.6718
8650,0.0610,-0.0615,1.0732,0.2137,-2.5344,-1.2214
8660,0.0698,-0.0535,0.9934,0.2748,-2.4580,-0.3511
8670,0.0605,-0.0010,1.0444,0.0763,-2.5954,-0.5954
8680,0.0586,-0.0457,1.0813,0.1985,-2.6412,-1.1298
8690,0.0696,-0.0688,1.0042,0.2748,-2.7328,-0.7328
8700,0.0586,0.0002,1.0198,0.1985,-2.6412,-0.3817
8739,0.0557,-0.0173,1.0808,0.2901,-2.5344,-0.3664
8740,0.0557,-0.0173,1.0808,0.2901,-2.5344,-0.3664
8750,0.0725,-0.0811,1.0508,0.0763,-2.5496,-1.3893
8760,0.0696,-0.0305,0.9939,0.2595,-2.5802,-1.2824
8770,0.0583,0.0022,1.0718,0.2137,-2.5649,-0.3664
8780,0.0659,-0.0667,1.0764,0.0458,-2.6565,-0.2595
8790,0.0664,-0.0457,0.9902,0.2137,-2.4885,-0.9618
8800,0.0571,0.0005,1.0503,0.2901,-2.4885,-1.3588
8810,0.0603,-0.0574,1.0894,0.0763,-2.7481,-0.3511
8820,0.0664,-0.0649,1.0002,0.2137,-2.3969,-0.2748
8830,0.0623,-0.0049,1.0269,0.1985,-2.5344,-1.2977
8840,0.0603,-0.0391,1.0906,0.1985,-2.6260,-1.3588
8850,0.0679,-0.0706,1.0156,0.2748,-2.4885,-0.5038
8860,0.0645,-0.0100,1.0012,0.1679,-2.6565,-0.4275
8870,0.0571,-0.0164,1.0908,0.2137,-2.6107,-1.2977
8880,0.0667,-0.0750,1.0393,0.3206,-2.4427,-0.7786
8890,0.0652,-0.0234,0.9988,0.1527,-2.6107,-0.3969
8900,0.0537,-0.0051,1.0776,0.2137,-2.6260,-1.0840
8910,0.0632,-0.0679,1.0686,0.2290,-2.6107,-0.7328
8920,0.0684,-0.0444,0.9910,0.2443,-2.5191,-0.3664
8930,0.0571,0.0054,1.0552,0.1679,-2.6107,-1.0534
8940,0.0632,-0.0718,1.0364,0.2137,-2.4275,-0.4885
8950,0.0647,-0.0205,0.9858,0.2901,-2.5191,-0.8092
8960,0.0613,-0.0044,1.0796,0.2290,-2.6565,-1.0992
8971,0.0640,-0.0659,1.0613,0.2901,-2.4580,-0.2748
8980,0.0674,-0.0383,0.9922,0.1985,-2.4580,-0.9466
8990,0.0598,-0.0015,1.0679,0.1527,-2.6870,-0.7328
9000,0.0613,-0.0559,1.0764,0.2595,-2.6107,-0.6565
9010,0.0688,-0.0564,0.9963,0.1832,-2.5802,-1.0382
9020,0.0596,0.0059,1.0403,0.1527,-2.5649,-0.5191
9030,0.0588,-0.0415,1.0825,0.2748,-2.5802,-0.9466
9040,0.0710,-0.0693,1.0088,0.2443,-2.6565,-0.8550
9050,0.0620,0.0044,1.0186,0.2137,-2.6565,-0.2443
9060,0.0564,-0.0256,1.0872,0.2137,-2.4885,-1.2366
9070,0.0693,-0.0789,1.0210,0.1832,-2.6565,-0.9160
9085,0.0618,0.0022,1.0474,0.1374,-2.5496,-0.6718
9090,0.0586,-0.0151,1.0774,0.1679,-2.5649,-1.0840
9100,0.0686,-0.0747,1.0520,0.1527,-2.6412,-1.1298
9110,0.0715,-0.0310,0.9924,0.3053,-2.6565,-0.5344
9120,0.0564,-0.0034,1.0642,0.2137,-2.5954,-0.5191
9130,0.0676,-0.0703,1.0762,0.2137,-2.6718,-1.1450
9140,0.0681,-0.0505,0.9946,0.2137,-2.5802,-1.2366
9150,0.0579,0.0027,1.0435,0.2290,-2.4885,-0.8397
9160,0.0615,-0.0535,1.0850,0.2443,-2.5954,-0.3206
9170,0.0693,-0.0659,1.0005,0.1679,-2.5344,-0.7176
9180,0.0645,-0.0039,1.0210,0.2443,-2.5649,-1.3282
9190,0.0613,-0.0327,1.0925,0.2290,-2.4885,-1.2214
9200,0.0681,-0.0774,1.0249,0.1985,-2.5191,-0.4733
9210,0.0645,-0.0142,0.9985,0.2901,-2.5496,-0.1832
9221,0.0605,-0.0103,1.0859,0.2443,-2.5802,-0.9313
9230,0.0676,-0.0693,1.0491,0.2443,-2.4580,-1.2977
9240,0.0684,-0.0315,0.9883,0.1832,-2.4733,-0.9313
9250,0.0613,-0.0007,1.0706,0.2137,-2.7176,-0.1985
9260,0.0640,-0.0625,1.0701,0.3053,-2.5191,-0.7634
9270,0.0728,-0.0574,0.9966,0.1069,-2.4122,-1.5573
9280,0.0618,0.0029,1.0452,0.1374,-2.5649,-0.7786
9290,0.0588,-0.0486,1.0830,0.3206,-2.4275,-0.2290
9300,0.0647,-0.0352,0.9880,0.2595,-2.5038,-1.3282
9310,0.0562,-0.0044,1.0759,0.2290,-2.6718,-1.0229
9320,0.0637,-0.0610,1.0706,0.2290,-2.5496,-0.1527
9330,0.0706,-0.0525,0.9966,0.2290,-2.4427,-0.4580
9340,0.0586,0.0010,1.0461,0.2290,-2.6107,-1.3588
9350,0.0596,-0.0493,1.0779,0.1985,-2.6565,-0.9160
9360,0.0688,-0.0669,1.0034,0.1832,-2.5802,-0.2595
9370,0.0615,0.0037,1.0205,0.2443,-2.6718,-0.7634
9380,0.0557,-0.0298,1.0864,0.3053,-2.4275,-1.2977
9390,0.0681,-0.0801,1.0195,0.2443,-2.6260,-0.6412
9400,0.0625,-0.0085,0.9993,0.1527,-2.6565,-0.0763
9410,0.0564,-0.0154,1.0811,0.2748,-2.4733,-1.0992
9420,0.0671,-0.0759,1.0471,0.3053,-2.5344,-1.3588
9430,0.0674,-0.0308,0.9939,0.1985,-2.4427,-0.5344
9440,0.0588,-0.0046,1.0659,0.2748,-2.6565,-0.2901
9450,0.0674,-0.0681,1.0686,0.1679,-2.6412,-0.1527
9460,0.0698,-0.0508,0.9893,0.1985,-2.5954,-0.7023
9471,0.0586,-0.0007,1.0408,0.3206,-2.4580,-1.1298
9480,0.0620,-0.0503,1.0854,0.1069,-2.6107,-1.5267
9490,0.0676,-0.0691,1.0022,0.2901,-2.5496,-1.1450
9500,0.0620,-0.0010,1.0176,0.2137,-2.4427,-0.3664
9510,0.0610,-0.0366,1.0881,0.0916,-2.5954,-0.1069
9520,0.0693,-0.0708,1.0234,0.2595,-2.5802,-0.4275
9530,0.0674,-0.0107,0.9944,0.2290,-2.7328,-1.0840
9540,0.0579,-0.0142,1.0881,0.1679,-2.6107,-1.5725
9550,0.0681,-0.0713,1.0513,0.3053,-2.4580,-1.1603
9560,0.0674,-0.0359,0.9929,0.2137,-2.4427,-0.5954
9570,0.0569,-0.0002,1.0710,0.1374,-2.6107,-0.2595
9580,0.0613,-0.0679,1.0713,0.2137,-2.4580,-0.2748
9590,0.0701,-0.0532,0.9951,0.1374,-2.5344,-0.6412
9600,0.0627,0.0046,1.0474,0.1985,-2.6412,-1.1298
9610,0.0620,-0.0471,1.0796,0.2290,-2.5344,-1.5725
9620,0.0718,-0.0698,1.0027,0.1069,-2.7023,-1.5725
9630,0.0620,0.0046,1.0200,0.1985,-2.4885,-0.9618
9640,0.0579,-0.0303,1.0867,0.2595,-2.3511,-0.2290
9650,0.0696,-0.0759,1.0215,0.1679,-2.5191,-0.3817
9660,0.0618,0.0029,1.0530,0.1069,-2.5344,-1.5267
9670,0.0598,-0.0513,1.0840,0.1679,-2.5344,-0.7939
9680,0.0703,-0.0667,1.0005,0.3053,-2.5191,-0.1221
9690,0.0627,0.0007,1.0234,0.1374,-2.5954,-0.4427
9700,0.0583,-0.0303,1.0830,0.1679,-2.5191,-1.3588
9710,0.0720,-0.0735,1.0188,0.2443,-2.5954,-1.3282
9721,0.0630,-0.0044,1.0051,0.1527,-2.6412,-0.4580
9730,0.0540,-0.0151,1.0820,0.2901,-2.5954,-0.2901
9740,0.0681,-0.0740,1.0449,0.1985,-2.5496,-1.2061
9750,0.0667,-0.0276,0.9937,0.2443,-2.6412,-1.0229
9760,0.0583,-0.0010,1.0686,0.2290,-2.5954,-0.4427
9770,0.0667,-0.0681,1.0686,0.1069,-2.5344,-0.3359
9780,0.0703,-0.0415,0.9924,0.2748,-2.5802,-0.9924
9790,0.0598,0.0024,1.0554,0.2290,-2.5038,-1.4809
9800,0.0649,-0.0586,1.0833,0.1832,-2.7328,-1.2977
9810,0.0698,-0.0620,0.9966,0.2137,-2.4885,-0.6718
9820,0.0640,-0.0017,1.0217,0.1985,-2.3359,-0.5038
9830,0.0623,-0.0422,1.0901,0.1985,-2.6870,-0.3053
9840,0.0691,-0.0708,1.0139,0.2901,-2.6565,-0.1985
9850,0.0627,-0.0122,1.0027,0.2290,-2.6565,-0.2901
9860,0.0613,-0.0208,1.0847,0.1832,-2.5344,-0.3817
9870,0.0664,-0.0706,1.0376,0.2137,-2.4427,-0.4122
9880,0.0701,-0.0273,0.9978,0.1832,-2.5191,-0.5496
9890,0.0586,-0.0081,1.0754,0.1374,-2.7328,-0.6718
9900,0.0630,-0.0698,1.0684,0.2443,-2.4885,-0.3664
9910,0.0715,-0.0535,0.9912,0.2443,-2.5649,-0.3511
9920,0.0627,-0.0017,1.0471,0.2290,-2.4885,-0.2595
9930,0.0637,-0.0498,1.0793,0.2290,-2.5954,-0.1221
9940,0.0730,-0.0767,1.0056,0.2137,-2.6565,-0.3664
9950,0.0671,-0.0054,1.0149,0.1832,-2.5802,-0.6718
9960,0.0610,-0.0386,1.0833,0.1832,-2.4580,-0.9924
9971,0.0728,-0.0884,1.0315,0.1679,-2.5496,-1.2672
9980,0.0674,-0.0225,0.9951,0.2595,-2.6718,-1.1603
9990,0.0598,-0.0161,1.0769,0.2290,-2.5649,-0.7634
10000,0.0693,-0.0774,1.0618,0.0763,-2.6107,-0.2901
10010,0.0693,-0.0149,1.0095,0.1374,-2.6260,-0.4122
10025,0.0623,-0.0603,1.0820,0.1221,-2.6718,-1.3588
10030,0.0703,-0.0837,1.0398,0.1527,-2.4885,-1.2214
10040,0.0728,-0.0352,0.9966,0.1679,-2.6565,-1.0840
10050,0.0605,-0.0090,1.0701,0.1374,-2.5496,-0.4580
10060,0.0681,-0.0752,1.0725,0.1832,-2.6870,-0.3206
10070,0.0735,-0.0542,0.9973,0.3511,-2.4733,-0.5038
10080,0.0603,0.0000,1.0425,0.2443,-2.5802,-1.2824
10095,0.0728,-0.0808,1.0505,0.2137,-2.5344,-0.8702
10100,0.0708,-0.0786,1.0083,0.2137,-2.6565,-0.5649
10110,0.0652,-0.0093,1.0107,0.2290,-2.5038,-0.2137
10120,0.0623,-0.0366,1.0889,0.1527,-2.6260,-0.8244
10130,0.0698,-0.0811,1.0300,0.2443,-2.5344,-1.2672
10140,0.0679,-0.0293,0.9919,0.3511,-2.5496,-0.8397
10150,0.0630,-0.0139,1.0813,0.1832,-2.7786,-0.4275
10160,0.0674,-0.0735,1.0620,0.2137,-2.4885,-0.6718
10170,0.0723,-0.0508,0.9946,0.2290,-2.4427,-1.2366
10180,0.0618,-0.0024,1.0574,0.1679,-2.6718,-0.8702
10190,0.0642,-0.0571,1.0813,0.1374,-2.5802,-0.0611
10200,0.0737,-0.0740,1.0046,0.1985,-2.6107,-0.8244
10210,0.0667,-0.0034,1.0190,0.0916,-2.5802,-1.2519
10221,0.0608,-0.0364,1.0864,0.2748,-2.5038,-1.0076
10230,0.0737,-0.0850,1.0322,0.3664,-2.5344,-0.7176
10240,0.0696,-0.0242,0.9937,0.2137,-2.6565,-0.9313
10250,0.0571,-0.0181,1.0747,0.2290,-2.5496,-1.2672
10260,0.0708,-0.0823,1.0605,0.3053,-2.5954,-0.7023
10270,0.0732,-0.0540,0.9954,0.2901,-2.5191,-0.9008
10280,0.0591,-0.0081,1.0481,0.2748,-2.5344,-1.1298
10290,0.0645,-0.0640,1.0864,0.2443,-2.6107,-0.4122
10300,0.0728,-0.0718,1.0042,0.2748,-2.5954,-0.5802
10310,0.0667,-0.0115,1.0110,0.2595,-2.4885,-1.3893
10320,0.0645,-0.0410,1.0881,0.1374,-2.5649,-0.5191
10330,0.0757,-0.0818,1.0305,0.3206,-2.5649,-0.6260
10340,0.0701,-0.0317,0.9924,0.2901,-2.6565,-0.7176
10350,0.0625,-0.0237,1.0793,0.1221,-2.5954,-0.3969
10360,0.0688,-0.0774,1.0605,0.3206,-2.4122,-0.9008
10370,0.0686,-0.0203,1.0020,0.1679,-2.4580,-0.6565
10380,0.0623,-0.0332,1.0854,0.0763,-2.6107,-1.0229
10390,0.0715,-0.0833,1.0435,0.2137,-2.5649,-0.8092
10400,0.0674,-0.0444,0.9883,0.1069,-2.4122,-0.2443
10410,0.0645,-0.0149,1.0718,0.0916,-2.7023,-1.0992
10420,0.0674,-0.0710,1.0684,0.0763,-2.6565,-0.7939
10430,0.0693,-0.0701,0.9929,0.1985,-2.4275,-0.4580
10440,0.0637,-0.0044,1.0393,0.1679,-2.4733,-0.9771
10450,0.0664,-0.0515,1.0881,0.1985,-2.6260,-0.5802
10460,0.0723,-0.0781,1.0095,0.2595,-2.6107,-0.9771
10471,0.0703,-0.0151,1.0103,0.1985,-2.6107,-0.9160
10480,0.0627,-0.0300,1.0815,0.2443,-2.4885,-0.4122
10490,0.0686,-0.0842,1.0415,0.2901,-2.5496,-1.1756
10500,0.0747,-0.0403,0.9963,0.1985,-2.6718,-0.5496
10510,0.0640,-0.0168,1.0681,0.1985,-2.5954,-0.7328
10520,0.0659,-0.0764,1.0720,0.1527,-2.5802,-1.0687
10530,0.0759,-0.0605,0.9954,0.1069,-2.6718,-0.4275
10540,0.0625,-0.0098,1.0359,0.2443,-2.5191,-1.0992
10550,0.0662,-0.0554,1.0835,0.1679,-2.6107,-0.5954
10560,0.0735,-0.0828,1.0093,0.1679,-2.6718,-1.1908
10570,0.0674,-0.0122,1.0029,0.2595,-2.5802,-0.8702
10580,0.0635,-0.0361,1.0876,0.1374,-2.6565,-0.5344
10590,0.0706,-0.0811,1.0439,0.2595,-2.4885,-1.1450
10600,0.0706,-0.0364,0.9924,0.3664,-2.5802,-0.4885
10610,0.0642,-0.0117,1.0793,0.1985,-2.8092,-0.7786
10620,0.0674,-0.0747,1.0713,0.2137,-2.5344,-1.0229
10630,0.0706,-0.0579,0.9895,0.2748,-2.3969,-0.3664
10640,0.0662,-0.0134,1.0422,0.1985,-2.5954,-0.9924
10650,0.0620,-0.0530,1.0823,0.2137,-2.6260,-0.5802
10660,0.0735,-0.0776,1.0122,0.1832,-2.6107,-0.7481
10670,0.0681,-0.0146,1.0115,0.1069,-2.6565,-1.0076
10680,0.0627,-0.0310,1.0881,0.2443,-2.5344,-0.4427
10690,0.0745,-0.0906,1.0405,0.1985,-2.5802,-1.3435
10700,0.0728,-0.0425,0.9995,0.2595,-2.7176,-0.3969
10710,0.0625,-0.0139,1.0708,0.2595,-2.5344,-0.9008
10721,0.0737,-0.0803,1.0171,0.2290,-2.5649,-0.3359
10730,0.0713,-0.0249,0.9976,0.1527,-2.6412,-1.1603
10740,0.0635,-0.0288,1.0808,0.1679,-2.6260,-0.4122
10750,0.0703,-0.0847,1.0579,0.2443,-2.4580,-1.1298
10760,0.0757,-0.0552,0.9956,0.2290,-2.5954,-0.5954
10770,0.0649,-0.0117,1.0598,0.2443,-2.5954,-0.8550
10780,0.0654,-0.0671,1.0750,0.2443,-2.5954,-0.6718
10790,0.0750,-0.0828,1.0042,0.1527,-2.6260,-1.2824
10800,0.0696,-0.0117,1.0227,0.3206,-2.5191,-0.3969
10810,0.0625,-0.0500,1.0813,0.2748,-2.5344,-0.9466
10820,0.0742,-0.0908,1.0273,0.1832,-2.6718,-0.5496
10830,0.0671,-0.0291,0.9949,0.2443,-2.5954,-1.2061
10840,0.0632,-0.0283,1.0828,0.2137,-2.5954,-0.7176
10850,0.0730,-0.0874,1.0601,0.2137,-2.6260,-1.0687
10860,0.0732,-0.0549,0.9846,0.3359,-2.4122,-0.7023
10870,0.0662,-0.0186,1.0574,0.1221,-2.5802,-0.6260
10880,0.0686,-0.0676,1.0857,0.2443,-2.6718,-1.0382
10890,0.0735,-0.0796,0.9966,0.1985,-2.6412,-0.4427
10900,0.0693,-0.0193,1.0215,0.0611,-2.5191,-1.1298
10910,0.0623,-0.0471,1.0847,0.2290,-2.5649,-0.4122
10920,0.0718,-0.0874,1.0308,0.2748,-2.4733,-0.9008
10930,0.0715,-0.0344,0.9980,0.0916,-2.6870,-0.7328
10940,0.0579,-0.0286,1.0791,0.2137,-2.5954,-0.7023
10950,0.0698,-0.0854,1.0637,0.2901,-2.4885,-0.8855
10960,0.0745,-0.0640,0.9961,0.2137,-2.5344,-0.4580
10971,0.0630,-0.0122,1.0469,0.1832,-2.4580,-0.8092
10980,0.0671,-0.0667,1.0823,0.1985,-2.5954,-0.7176
10990,0.0735,-0.0798,1.0046,0.1985,-2.6718,-0.7481
11000,0.0671,-0.0137,1.0115,0.2290,-2.6107,-0.6412
11010,0.0635,-0.0471,1.0884,0.2137,-2.5191,-0.7176
11020,0.0740,-0.0874,1.0349,0.2290,-2.5954,-0.8397
11030,0.0735,-0.0374,0.9932,0.2595,-2.5191,-0.5954
11040,0.0669,-0.0278,1.0742,0.2290,-2.6718,-0.8397
11050,0.0676,-0.0842,1.0671,0.0916,-2.5344,-1.1298
11060,0.0710,-0.0759,0.9897,0.2290,-2.4427,-0.7481
11070,0.0649,-0.0266,1.0732,0.1985,-2.5191,-0.5802
11080,0.0737,-0.0886,1.0632,0.1527,-2.6260,-0.8702
11090,0.0752,-0.0579,0.9937,0.3053,-2.4885,-0.8397
11105,0.0664,-0.0422,1.0825,0.1832,-2.5649,-0.7786
11110,0.0696,-0.0708,1.0852,0.1679,-2.7481,-0.9466
11120,0.0725,-0.0884,1.0005,0.3206,-2.5802,-0.9924
11130,0.0657,-0.0188,1.0154,0.2290,-2.5802,-0.5496
11140,0.0645,-0.0471,1.0867,0.1221,-2.5954,-0.7786
11150,0.0725,-0.0859,1.0325,0.1985,-2.5191,-0.7023
11160,0.0735,-0.0381,0.9971,0.1985,-2.6718,-0.9466
11170,0.0647,-0.0190,1.0752,0.1374,-2.7481,-1.1298
11180,0.0679,-0.0801,1.0652,0.1374,-2.5496,-0.6718
11190,0.0752,-0.0642,0.9924,0.1679,-2.4733,-1.0076
11200,0.0664,-0.0181,1.0459,0.2595,-2.5344,-0.7786
11210,0.0676,-0.0627,1.0808,0.1679,-2.5344,-0.8397
11221,0.0747,-0.0852,1.0100,0.2290,-2.6412,-1.0076
11230,0.0681,-0.0154,1.0076,0.2901,-2.5649,-0.5191
11240,0.0645,-0.0356,1.0803,0.2595,-2.4580,-1.1908
11250,0.0725,-0.0891,1.0449,0.1832,-2.4885,-0.5038
11260,0.0723,-0.0381,0.9915,0.2595,-2.5954,-1.1145
11270,0.0613,-0.0164,1.0698,0.2443,-2.5649,-0.4580
11280,0.0669,-0.0796,1.0764,0.1679,-2.6260,-1.2061
11290,0.0720,-0.0667,0.9919,0.2290,-2.5191,-0.2748
11300,0.0649,-0.0171,1.0393,0.3206,-2.5191,-0.9466
11310,0.0688,-0.0522,1.0913,0.2137,-2.6718,-0.7786
11320,0.0710,-0.0879,1.0137,0.2137,-2.4885,-0.7939
11330,0.0703,-0.0244,1.0022,0.2137,-2.6107,-0.7176
11340,0.0618,-0.0366,1.0879,0.2290,-2.5344,-0.6718
11350,0.0669,-0.0815,1.0447,0.2901,-2.4427,-0.9771
11360,0.0728,-0.0552,0.9949,0.1069,-2.5191,-0.7328
11370,0.0635,-0.0127,1.0652,0.1221,-2.6565,-1.1145
11380,0.0669,-0.0708,1.0742,0.2443,-2.5954,-0.8397
11390,0.0771,-0.0791,1.0054,0.1832,-2.5802,-1.0534
11400,0.0640,-0.0127,1.0278,0.1374,-2.5344,-0.9160
11410,0.0613,-0.0479,1.0815,0.1832,-2.4733,-0.8855
11420,0.0723,-0.0657,0.9924,0.2137,-2.3969,-0.5954
11430,0.0664,-0.0154,1.0479,0.1679,-2.5802,-1.2214
11440,0.0647,-0.0610,1.0820,0.2137,-2.6412,-0.1069
11450,0.0745,-0.0916,1.0110,0.1832,-2.5496,-1.0076
11460,0.0674,-0.0232,1.0120,0.2443,-2.6260,-0.6718
11471,0.0605,-0.0391,1.0818,0.1985,-2.5038,-0.9160
11480,0.0735,-0.0923,1.0425,0.2137,-2.5344,-0.9466
11490,0.0696,-0.0464,0.9915,0.1527,-2.6260,-0.5496
11500,0.0581,-0.0171,1.0691,0.1832,-2.5954,-0.9313
11510,0.0681,-0.0828,1.0767,0.2137,-2.6870,-0.9313
11520,0.0740,-0.0703,0.9958,0.2137,-2.5496,-0.5038
11530,0.0613,-0.0095,1.0388,0.2595,-2.4427,-1.2672
11540,0.0645,-0.0620,1.0869,0.2443,-2.5802,-0.5038
11550,0.0750,-0.0876,1.0071,0.2748,-2.6718,-0.8092
11560,0.0637,-0.0151,1.0017,0.2443,-2.5496,-0.8702
11570,0.0598,-0.0359,1.0884,0.0763,-2.5496,-0.4885
11580,0.0691,-0.0840,1.0398,0.1985,-2.5038,-1.2366
11590,0.0735,-0.0408,0.9963,0.1985,-2.5344,-0.6565
11600,0.0588,-0.0181,1.0784,0.1832,-2.6870,-1.1450
11610,0.0645,-0.0854,1.0728,0.2290,-2.5344,-0.4122
11620,0.0725,-0.0754,0.9951,0.1832,-2.5191,-1.0229
11630,0.0667,-0.0195,1.0413,0.1527,-2.5344,-0.9924
11640,0.0640,-0.0667,1.0811,0.2443,-2.4275,-0.6412
11650,0.0691,-0.0977,1.0105,0.2137,-2.5496,-1.0382
11660,0.0676,-0.0276,1.0054,0.1069,-2.6412,-0.6260
11670,0.0583,-0.0430,1.0784,0.1985,-2.5344,-0.9924
11680,0.0679,-0.0872,1.0474,0.1679,-2.5802,-0.3053
11690,0.0635,-0.0386,0.9893,0.1832,-2.5496,-0.9466
11700,0.0566,-0.0132,1.0652,0.2595,-2.5802,-0.6718
11710,0.0659,-0.0752,1.0769,0.1069,-2.6718,-1.0229
11721,0.0691,-0.0686,0.9910,0.1832,-2.5802,-0.7786
11730,0.0569,-0.0134,1.0315,0.2748,-2.5802,-1.0534
11740,0.0620,-0.0549,1.0908,0.1527,-2.6412,-0.7481
11750,0.0696,-0.0847,1.0110,0.2443,-2.5038,-0.8092
11760,0.0632,-0.0225,1.0032,0.1832,-2.6260,-0.9160
11770,0.0623,-0.0684,1.0842,0.1374,-2.6260,-0.7328
11780,0.0691,-0.0808,1.0037,0.1832,-2.6870,-0.9618
11790,0.0613,-0.0110,1.0115,0.2748,-2.5191,-0.5038
11800,0.0569,-0.0442,1.0869,0.1679,-2.5802,-1.0992
11810,0.0679,-0.0867,1.0286,0.1679,-2.4885,-0.8550
11820,0.0645,-0.0283,0.9954,0.3206,-2.5649,-0.4580
11830,0.0601,-0.0247,1.0801,0.1985,-2.6718,-0.9008
11840,0.0642,-0.0837,1.0637,0.1527,-2.5344,-0.7634
11850,0.0647,-0.0564,0.9915,0.2748,-2.4580,-0.7481
11860,0.0557,-0.0161,1.0598,0.1679,-2.5802,-1.0840
11870,0.0562,-0.0645,1.0825,0.1374,-2.5649,-0.5038
11880,0.0647,-0.0840,1.0029,0.2901,-2.5344,-0.6565
11890,0.0608,-0.0166,1.0215,0.1527,-2.5802,-1.0534
11900,0.0569,-0.0393,1.0901,0.2901,-2.5191,-0.5038
11910,0.0686,-0.0933,1.0278,0.2748,-2.4580,-0.7634
11920,0.0659,-0.0291,0.9966,0.1985,-2.5954,-0.8092
11930,0.0520,-0.0212,1.0754,0.2290,-2.5954,-0.4122
11940,0.0640,-0.0867,1.0618,0.2137,-2.5649,-1.1298
11950,0.0640,-0.0552,0.9934,0.2137,-2.4733,-0.5954
11960,0.0549,-0.0112,1.0554,0.2901,-2.4885,-0.9008
11971,0.0601,-0.0730,1.0859,0.0916,-2.6412,-0.8397
11980,0.0664,-0.0781,1.0024,0.1985,-2.6107,-0.8092
11990,0.0562,-0.0115,1.0205,0.2901,-2.4427,-0.9160
12000,0.0625,-0.0461,1.0884,0.1374,-2.5649,-0.5344
12010,0.0674,-0.0859,1.0220,0.2290,-2.5496,-0.9924
12020,0.0642,-0.0239,0.9978,0.2748,-2.5802,-0.6565
12030,0.0566,-0.0237,1.0840,0.1374,-2.6412,-0.9313
12040,0.0618,-0.0815,1.0583,0.2595,-2.5954,-0.5038
12050,0.0671,-0.0540,0.9949,0.2137,-2.5344,-1.0992
12060,0.0583,-0.0149,1.0593,0.1221,-2.5649,-0.9771
12070,0.0598,-0.0696,1.0813,0.1832,-2.5344,-0.8855
12080,0.0713,-0.0842,1.0049,0.1527,-2.5496,-1.2672
12090,0.0654,-0.0129,1.0193,0.2595,-2.6718,-0.8244
12100,0.0586,-0.0444,1.0835,0.1985,-2.5038,-0.8855
12115,0.0688,-0.0713,0.9941,0.3053,-2.5496,-0.7786
12120,0.0601,-0.0095,1.0312,0.2290,-2.4885,-0.9771
12130,0.0598,-0.0466,1.0857,0.1221,-2.4275,-0.9466
12140,0.0696,-0.0864,1.0159,0.2748,-2.5496,-1.1145
12150,0.0674,-0.0271,1.0071,0.2137,-2.7023,-0.8702
12160,0.0583,-0.0295,1.0815,0.2290,-2.5496,-0.8702
12170,0.0635,-0.0901,1.0508,0.2901,-2.4733,-1.1298
12180,0.0715,-0.0493,0.9949,0.1985,-2.5954,-0.4733
12190,0.0576,-0.0103,1.0586,0.2137,-2.5038,-0.7481
12200,0.0637,-0.0708,1.0764,0.1985,-2.4885,-0.9160
12210,0.0686,-0.0786,1.0007,0.1527,-2.6260,-0.5191
12221,0.0632,-0.0063,1.0242,0.2595,-2.5038,-0.4733
12230,0.0659,-0.0513,1.0847,0.2290,-2.6107,-1.0992
12240,0.0696,-0.0908,1.0283,0.1832,-2.5344,-0.9771
12250,0.0620,-0.0295,0.9929,0.3053,-2.6260,-0.4733
12260,0.0581,-0.0249,1.0796,0.1527,-2.5954,-0.6718
12270,0.0664,-0.0850,1.0601,0.1985,-2.5038,-0.9618
12280,0.0684,-0.0593,0.9875,0.2290,-2.4122,-0.8092
12290,0.0615,-0.0142,1.0552,0.0458,-2.6412,-0.8702
12300,0.0647,-0.0571,1.0776,0.2443,-2.6412,-0.7176
12310,0.0691,-0.0835,1.0027,0.2290,-2.5954,-0.7328
12320,0.0667,-0.0212,1.0125,0.1679,-2.6870,-1.0076
12330,0.0593,-0.0349,1.0823,0.3664,-2.5344,-1.2366
12340,0.0676,-0.0923,1.0398,0.1985,-2.4885,-0.9466
12350,0.0696,-0.0396,0.9949,0.1679,-2.5954,-0.8550
12360,0.0569,-0.0151,1.0669,0.1832,-2.5344,-0.7786
12370,0.0676,-0.0791,1.0710,0.1527,-2.6107,-1.0076
12380,0.0725,-0.0747,0.9956,0.2748,-2.6260,-1.0992
12390,0.0640,-0.0095,1.0283,0.2137,-2.4733,-0.9313
12400,0.0642,-0.0522,1.0872,0.1527,-2.5496,-0.8244
12410,0.0703,-0.0884,1.0247,0.2290,-2.5191,-0.7328
12420,0.0654,-0.0242,0.9939,0.2290,-2.5191,-0.3511
12430,0.0625,-0.0298,1.0784,0.1832,-2.6107,-0.7176
12440,0.0686,-0.0813,1.0630,0.2290,-2.5802,-0.7328
12450,0.0698,-0.0586,0.9890,0.3053,-2.4427,-0.7939
12460,0.0613,-0.0149,1.0532,0.2443,-2.6260,-1.0076
12471,0.0703,-0.0901,1.0544,0.1832,-2.5802,-1.2519
12480,0.0684,-0.0488,0.9902,0.3053,-2.3817,-1.1298
12490,0.0605,-0.0151,1.0615,0.0763,-2.5344,-1.0382
12500,0.0688,-0.0696,1.0859,0.1221,-2.6718,-0.6412
12510,0.0730,-0.0750,0.9983,0.2748,-2.5802,-0.9924
12520,0.0684,-0.0183,1.0237,0.0916,-2.6412,-0.7023
12530,0.0647,-0.0452,1.0903,0.1679,-2.5191,-0.8244
12540,0.0703,-0.0940,1.0291,0.3206,-2.4885,-0.7023
12550,0.0708,-0.0415,0.9937,0.2290,-2.5802,-0.7023
12560,0.0601,-0.0249,1.0740,0.2443,-2.6412,-0.7634
12570,0.0654,-0.0820,1.0667,0.1832,-2.5344,-0.7023
12580,0.0728,-0.0652,0.9956,0.2290,-2.6412,-1.1756
12590,0.0603,-0.0093,1.0349,0.1985,-2.5496,-0.9466
12600,0.0669,-0.0576,1.0808,0.1527,-2.5344,-0.9313
12610,0.0740,-0.0901,1.0203,0.1679,-2.6260,-1.0076
12620,0.0684,-0.0176,0.9985,0.2595,-2.5802,-0.7481
12630,0.0615,-0.0293,1.0818,0.1832,-2.5496,-0.5954
12640,0.0725,-0.0857,1.0632,0.1221,-2.5649,-0.7481
12650,0.0720,-0.0500,0.9912,0.3206,-2.4122,-0.6260
12660,0.0659,-0.0137,1.0571,0.2137,-2.5191,-0.8244
12670,0.0657,-0.0591,1.0806,0.1985,-2.5954,-0.9771
12680,0.0696,-0.0815,1.0042,0.2290,-2.5191,-1.0687
12690,0.0684,-0.0229,1.0137,0.2443,-2.5954,-0.9618
12700,0.0625,-0.0310,1.0859,0.1679,-2.6107,-0.9466
12710,0.0688,-0.0928,1.0398,0.2748,-2.4275,-0.8550
12721,0.0713,-0.0461,0.9939,0.2443,-2.5496,-0.7939
12730,0.0588,-0.0110,1.0657,0.2290,-2.5802,-0.6412
12740,0.0664,-0.0801,1.0767,0.1985,-2.5649,-0.8092
12750,0.0698,-0.0747,0.9988,0.1069,-2.6260,-0.5191
12760,0.0630,-0.0068,1.0269,0.2137,-2.4580,-0.7634
12770,0.0613,-0.0471,1.0840,0.2290,-2.5344,-0.8550
12780,0.0713,-0.0896,1.0259,0.1832,-2.5191,-0.7481
12790,0.0681,-0.0259,0.9963,0.2290,-2.5191,-0.6412
12800,0.0620,-0.0266,1.0815,0.1832,-2.5649,-0.9160
12810,0.0688,-0.0813,1.0679,0.1527,-2.5649,-0.9466
12820,0.0728,-0.0212,1.0042,0.2595,-2.7176,-0.5802
12830,0.0571,-0.0332,1.0850,0.2595,-2.5191,-0.6565
12840,0.0684,-0.0925,1.0544,0.1832,-2.5038,-0.9313
12850,0.0708,-0.0471,0.9888,0.2290,-2.4427,-0.9771
12860,0.0625,-0.0127,1.0610,0.1679,-2.5038,-0.8092
12870,0.0676,-0.0691,1.0862,0.1679,-2.7328,-0.8702
12880,0.0691,-0.0769,0.9988,0.1679,-2.5954,-0.7939
12890,0.0630,-0.0142,1.0193,0.2137,-2.5191,-0.7786
12900,0.0652,-0.0403,1.0920,0.1985,-2.5496,-1.0076
12910,0.0710,-0.0859,1.0342,0.2137,-2.4733,-0.7328
12920,0.0688,-0.0447,0.9985,0.1985,-2.4733,-0.5496
12930,0.0635,-0.0212,1.0732,0.1374,-2.6412,-0.7939
12940,0.0659,-0.0779,1.0703,0.1832,-2.5649,-1.0076
12950,0.0725,-0.0720,0.9937,0.1985,-2.5802,-0.8855
12960,0.0647,-0.0090,1.0332,0.1832,-2.5191,-0.7939
12971,0.0662,-0.0486,1.0823,0.2137,-2.5038,-0.6260
12980,0.0742,-0.0918,1.0234,0.2443,-2.5954,-0.7481
12990,0.0725,-0.0283,0.9990,0.1985,-2.5954,-0.7023
13000,0.0566,-0.0244,1.0762,0.2290,-2.5191,-0.9008
13010,0.0686,-0.0830,1.0620,0.2137,-2.5496,-1.0382
13020,0.0730,-0.0588,0.9927,0.1527,-2.5496,-0.5649
13030,0.0625,-0.0146,1.0442,0.2443,-2.5344,-0.6565
13040,0.0684,-0.0596,1.0850,0.1679,-2.5649,-0.9618
13050,0.0740,-0.0833,1.0107,0.2443,-2.5649,-0.4733
13060,0.0686,-0.0200,1.0032,0.3053,-2.5802,-0.4733
13070,0.0645,-0.0322,1.0847,0.0916,-2.6565,-0.7939
13080,0.0684,-0.0886,1.0557,0.2137,-2.4122,-0.8550
13090,0.0752,-0.0586,0.9883,0.2901,-2.4885,-1.0992
13100,0.0667,-0.0144,1.0544,0.1069,-2.6412,-0.7634
13110,0.0662,-0.0615,1.0747,0.1679,-2.5344,-0.8092
13125,0.0732,-0.0544,0.9868,0.2443,-2.3664,-0.7634
13130,0.0688,-0.0186,1.0107,0.2137,-2.5954,-0.8550
13140,0.0608,-0.0408,1.0803,0.2748,-2.4885,-0.8855
13150,0.0740,-0.0928,1.0488,0.1679,-2.5344,-0.9771
13160,0.0701,-0.0491,0.9961,0.2290,-2.5191,-0.6870
13170,0.0618,-0.0195,1.0591,0.3664,-2.5038,-0.9466
13180,0.0710,-0.0928,1.0405,0.3206,-2.4885,-0.8092
13190,0.0754,-0.0515,0.9927,0.2748,-2.6107,-0.7176
13200,0.0620,-0.0190,1.0625,0.2137,-2.5802,-0.5344
13210,0.0671,-0.0776,1.0801,0.2595,-2.5344,-1.2061
13221,0.0752,-0.0793,1.0024,0.1985,-2.6260,-0.6870
13230,0.0664,-0.0205,1.0151,0.2901,-2.5649,-0.5344
13240,0.0635,-0.0510,1.0857,0.1374,-2.4733,-0.7023
13250,0.0730,-0.0972,1.0403,0.1679,-2.4580,-0.6870
13260,0.0691,-0.0491,0.9902,0.2595,-2.5191,-0.7023
13270,0.0662,-0.0254,1.0681,0.1985,-2.6412,-0.7939
13280,0.0686,-0.0789,1.0769,0.0763,-2.5802,-1.0076
13290,0.0715,-0.0823,0.9905,0.3206,-2.4427,-0.5038
13300,0.0693,-0.0232,1.0264,0.1832,-2.6412,-0.9618
13310,0.0647,-0.0547,1.0874,0.1221,-2.5802,-0.7634
13320,0.0747,-0.1006,1.0283,0.2443,-2.4733,-0.7481
13330,0.0779,-0.0493,0.9978,0.1527,-2.6412,-1.0687
13340,0.0613,-0.0325,1.0740,0.1832,-2.6412,-0.8855
13350,0.0693,-0.0955,1.0715,0.2748,-2.5344,-0.8397
13360,0.0769,-0.0867,0.9976,0.1374,-2.5496,-1.1298
13370,0.0667,-0.0205,1.0261,0.3053,-2.5496,-1.0076
13380,0.0669,-0.0535,1.0830,0.3206,-2.5191,-0.6718
13390,0.0764,-0.1038,1.0322,0.1069,-2.5649,-0.9771
13400,0.0713,-0.0422,0.9929,0.2748,-2.5344,-0.7939
13410,0.0649,-0.0266,1.0732,0.1679,-2.6412,-0.9008
13420,0.0706,-0.0859,1.0771,0.1374,-2.6412,-0.6870
13430,0.0732,-0.0833,0.9958,0.2748,-2.4885,-0.7176
13440,0.0688,-0.0342,1.0315,0.1832,-2.5496,-0.7481
13450,0.0686,-0.0544,1.0874,0.2290,-2.5954,-1.0229
13460,0.0718,-0.0989,1.0278,0.3359,-2.4580,-0.7634
13472,0.0647,-0.0254,1.0239,0.2595,-2.5038,-0.4885
13480,0.0640,-0.0283,1.0713,0.1985,-2.6412,-0.5802
13490,0.0703,-0.0862,1.0737,0.3206,-2.5649,-0.9466
13500,0.0754,-0.0857,0.9961,0.2290,-2.6260,-0.5954
13510,0.0679,-0.0217,1.0200,0.2595,-2.5191,-0.8244
13520,0.0664,-0.0598,1.0840,0.1679,-2.4427,-0.4885
13530,0.0771,-0.0862,0.9968,0.2137,-2.5496,-0.6870
13540,0.0701,-0.0203,1.0281,0.1527,-2.6412,-1.1145
13550,0.0649,-0.0474,1.0815,0.1832,-2.4885,-0.9466
13560,0.0730,-0.0969,1.0283,0.1221,-2.5496,-0.5038
13570,0.0750,-0.0420,1.0007,0.1374,-2.6107,-0.9618
13580,0.0637,-0.0208,1.0688,0.3053,-2.5191,-0.6565
13590,0.0691,-0.0864,1.0779,0.1679,-2.6107,-1.0534
13600,0.0769,-0.0850,0.9993,0.1374,-2.6107,-0.8397
13610,0.0679,-0.0210,1.0222,0.2748,-2.5038,-0.4733
13620,0.0706,-0.0610,1.0847,0.1832,-2.5496,-0.9466
13630,0.0764,-0.1003,1.0354,0.2901,-2.4733,-0.7786
13640,0.0732,-0.0518,0.9907,0.2901,-2.4885,-0.8855
13650,0.0664,-0.0322,1.0757,0.1221,-2.6718,-0.7634
13660,0.0671,-0.0835,1.0745,0.1832,-2.6260,-0.8855
13670,0.0750,-0.0901,0.9971,0.2290,-2.5191,-0.5344
13680,0.0723,-0.0300,1.0278,0.1069,-2.5802,-1.0382
13690,0.0664,-0.0579,1.0869,0.1985,-2.5802,-0.8244
13700,0.0754,-0.0989,1.0386,0.2595,-2.4733,-0.5191
13710,0.0754,-0.0496,0.9966,0.1069,-2.5802,-0.6260
13722,0.0632,-0.0293,1.0659,0.1832,-2.5802,-0.7634
13730,0.0713,-0.0930,1.0747,0.1679,-2.5344,-0.6718
13740,0.0784,-0.0840,0.9971,0.1985,-2.5649,-0.9466
13750,0.0686,-0.0229,1.0164,0.2290,-2.5649,-0.9160
13760,0.0674,-0.0647,1.0864,0.1069,-2.5496,-0.7634
13770,0.0737,-0.1028,1.0371,0.2290,-2.5344,-0.8397
13780,0.0718,-0.0549,0.9905,0.2901,-2.5344,-0.7939
13790,0.0693,-0.0371,1.0662,0.1221,-2.5802,-0.6718
13800,0.0708,-0.0840,1.0747,0.2443,-2.5954,-1.0076
13810,0.0793,-0.0930,0.9958,0.2290,-2.5954,-0.8397
13820,0.0728,-0.0300,1.0225,0.1527,-2.6260,-1.0992
13830,0.0669,-0.0444,1.0803,0.1679,-2.5954,-0.7328
13840,0.0754,-0.1055,1.0410,0.2595,-2.4122,-0.8397
13850,0.0789,-0.0574,0.9990,0.1374,-2.5496,-0.9313
13860,0.0645,-0.0259,1.0625,0.2290,-2.5496,-0.4885
13870,0.0684,-0.0938,1.0774,0.1832,-2.5954,-0.4427
13880,0.0750,-0.0554,0.9915,0.2290,-2.5191,-0.9008
13890,0.0640,-0.0273,1.0623,0.1527,-2.6107,-0.6260
13900,0.0693,-0.0808,1.0735,0.2901,-2.5649,-0.6718
13910,0.0784,-0.0903,1.0081,0.2290,-2.5649,-0.7481
13920,0.0671,-0.0249,1.0127,0.1527,-2.5802,-0.6260
13930,0.0627,-0.0505,1.0837,0.3206,-2.4275,-0.5649
13940,0.0784,-0.1042,1.0476,0.1832,-2.5344,-0.9466
13950,0.0740,-0.0601,0.9888,0.2595,-2.5344,-0.8092
13960,0.0667,-0.0276,1.0547,0.2748,-2.4885,-0.6565
13972,0.0698,-0.0845,1.0803,0.1374,-2.5802,-1.0840
13980,0.0764,-0.0876,1.0037,0.2290,-2.6107,-0.7328
13990,0.0681,-0.0281,1.0110,0.2290,-2.5954,-0.9466
14000,0.0679,-0.0530,1.0820,0.1985,-2.6260,-0.7176
14010,0.0713,-0.1011,1.0439,0.2443,-2.5191,-0.9924
14020,0.0752,-0.0642,0.9888,0.2595,-2.4122,-0.7939
14030,0.0664,-0.0293,1.0640,0.2137,-2.6260,-0.7481
14040,0.0686,-0.0886,1.0796,0.1527,-2.5344,-1.0229
14050,0.0789,-0.0986,1.0027,0.1527,-2.5344,-0.7634
14060,0.0728,-0.0364,1.0083,0.2443,-2.6412,-0.7786
14070,0.0647,-0.0493,1.0796,0.2595,-2.5802,-0.7634
14080,0.0718,-0.1113,1.0544,0.1679,-2.5191,-1.1756
14090,0.0732,-0.0618,0.9932,0.2290,-2.5649,-0.9771
14100,0.0667,-0.0281,1.0505,0.2748,-2.5954,-0.8397
14110,0.0730,-0.0867,1.0881,0.1832,-2.6870,-1.0382
14120,0.0745,-0.0955,1.0088,0.2901,-2.6718,-0.6107
14136,0.0635,-0.0215,1.0493,0.2443,-2.5344,-0.4427
14140,0.0706,-0.0408,1.0847,0.1832,-2.6565,-0.8397
14150,0.0715,-0.0999,1.0579,0.1374,-2.5954,-1.2061
14160,0.0750,-0.0793,0.9915,0.2443,-2.4275,-0.9924
14170,0.0674,-0.0271,1.0479,0.1679,-2.5496,-0.6565
14180,0.0718,-0.0654,1.0823,0.2290,-2.5038,-0.6718
14190,0.0769,-0.1099,1.0144,0.2290,-2.5649,-0.8092
14200,0.0757,-0.0454,1.0002,0.1527,-2.6565,-0.2595
14210,0.0657,-0.0315,1.0730,0.2595,-2.4885,-0.6565
14222,0.0735,-0.1050,1.0186,0.2443,-2.5191,-0.4580
14230,0.0776,-0.0525,0.9993,0.2290,-2.5649,-1.0382
14240,0.0642,-0.0386,1.0767,0.2443,-2.6565,-0.8702
14250,0.0720,-0.0986,1.0669,0.2137,-2.5649,-0.9924
14260,0.0757,-0.0894,0.9951,0.1069,-2.5496,-0.7634
14270,0.0674,-0.0251,1.0269,0.2443,-2.5649,-0.8397
14280,0.0674,-0.0679,1.0884,0.1832,-2.5344,-0.7481
14290,0.0767,-0.1128,1.0332,0.1985,-2.5496,-0.9618
14300,0.0757,-0.0527,0.9895,0.2901,-2.5802,-0.6412
14310,0.0652,-0.0415,1.0627,0.1527,-2.5802,-0.8397
14320,0.0723,-0.1018,1.0803,0.1221,-2.6870,-0.8550
14330,0.0747,-0.0955,0.9966,0.2443,-2.5496,-0.7634
14340,0.0710,-0.0393,1.0195,0.2290,-2.5649,-0.7328
14350,0.0691,-0.0552,1.0857,0.1832,-2.6107,-0.8092
14360,0.0730,-0.1045,1.0383,0.2137,-2.4427,-0.8550
14370,0.0759,-0.0713,0.9897,0.1985,-2.5191,-0.9313
14380,0.0642,-0.0410,1.0640,0.1527,-2.5954,-0.7023
14390,0.0693,-0.0945,1.0784,0.2290,-2.5191,-1.1298
14400,0.0803,-0.1060,1.0046,0.1832,-2.6565,-0.8092
14410,0.0708,-0.0435,1.0046,0.2137,-2.6107,-0.7328
14420,0.0671,-0.0608,1.0798,0.2443,-2.5191,-0.9924
14430,0.0762,-0.1099,1.0562,0.1527,-2.5649,-0.7634
14440,0.0791,-0.0735,0.9937,0.1985,-2.4885,-0.9924
14450,0.0652,-0.0425,1.0474,0.2443,-2.4733,-0.9008
14460,0.0701,-0.0779,1.0872,0.1374,-2.6412,-0.9618
14472,0.0750,-0.1064,1.0137,0.2595,-2.5954,-0.8855
14480,0.0730,-0.0452,1.0012,0.2748,-2.5496,-1.1145
14490,0.0676,-0.0532,1.0784,0.0916,-2.6565,-0.7786
14500,0.0730,-0.1038,1.0642,0.3053,-2.4733,-1.0382
14510,0.0789,-0.0901,0.9946,0.1985,-2.4885,-0.9160
14520,0.0686,-0.0361,1.0400,0.1221,-2.5802,-0.9466
14530,0.0681,-0.0774,1.0815,0.2443,-2.4580,-1.1145
14540,0.0754,-0.1160,1.0247,0.1832,-2.5802,-0.8855
14550,0.0732,-0.0466,0.9956,0.1985,-2.6718,-0.6870
14560,0.0667,-0.0393,1.0698,0.1985,-2.5649,-0.7176
14570,0.0737,-0.1074,1.0742,0.0916,-2.6412,-0.8092
14580,0.0781,-0.0620,0.9963,0.1374,-2.6260,-1.0076
14590,0.0667,-0.0405,1.0701,0.1527,-2.6260,-0.9466
14600,0.0725,-0.0981,1.0728,0.2748,-2.5496,-0.6565
14610,0.0808,-0.1040,0.9995,0.1374,-2.5649,-0.8244
14620,0.0669,-0.0439,1.0183,0.1374,-2.5496,-0.7481
14630,0.0676,-0.0730,1.0808,0.2748,-2.4580,-0.9008
14640,0.0769,-0.1187,1.0415,0.1832,-2.5649,-0.9466
14650,0.0715,-0.0703,0.9919,0.2443,-2.5496,-0.5038
14660,0.0688,-0.0435,1.0569,0.2137,-2.5649,-0.7023
14670,0.0728,-0.0952,1.0798,0.1527,-2.6718,-0.8550
14680,0.0774,-0.1128,1.0010,0.2443,-2.5802,-1.1145
14690,0.0750,-0.0496,1.0078,0.2137,-2.5954,-0.8550
14700,0.0688,-0.0691,1.0854,0.1985,-2.6260,-1.0382
14710,0.0715,-0.1133,1.0540,0.2901,-2.5038,-0.7634
14722,0.0784,-0.0903,0.9897,0.2137,-2.5496,-0.7939
14730,0.0664,-0.0500,1.0444,0.1985,-2.5191,-0.9618
14740,0.0693,-0.0896,1.0818,0.1985,-2.5191,-0.9924
14750,0.0801,-0.1118,1.0178,0.1221,-2.6107,-0.8397
14760,0.0747,-0.0486,0.9973,0.2290,-2.5954,-0.7023
14770,0.0662,-0.0527,1.0759,0.1679,-2.5954,-0.6565
14780,0.0769,-0.1123,1.0696,0.1069,-2.5649,-0.7939
14790,0.0747,-0.0935,0.9922,0.2901,-2.5802,-0.5802
14800,0.0718,-0.0398,1.0320,0.2748,-2.5191,-0.7176
14810,0.0691,-0.0745,1.0857,0.1374,-2.6260,-0.8702
14820,0.0759,-0.1116,1.0330,0.3359,-2.5344,-0.5954
14830,0.0728,-0.0693,0.9939,0.2443,-2.6260,-0.7481
14840,0.0669,-0.0542,1.0732,0.1527,-2.7023,-0.9771
14850,0.0693,-0.1028,1.0757,0.2443,-2.6107,-0.8244
14860,0.0759,-0.1096,1.0024,0.1832,-2.5649,-0.7023
14870,0.0703,-0.0396,1.0217,0.2290,-2.5649,-0.7786
14880,0.0667,-0.0684,1.0833,0.2290,-2.5191,-0.5954
14890,0.0767,-0.1184,1.0435,0.1832,-2.5344,-0.8702
14900,0.0776,-0.0769,0.9917,0.3053,-2.5496,-0.9466
14910,0.0618,-0.0532,1.0559,0.2290,-2.5038,-0.9008
14920,0.0737,-0.0999,1.0852,0.1832,-2.6412,-0.8855
14930,0.0813,-0.0845,0.9961,0.2595,-2.4580,-1.0382
14940,0.0657,-0.0457,1.0488,0.1832,-2.4580,-1.1450
14950,0.0698,-0.0896,1.0811,0.2443,-2.5496,-0.8702
14960,0.0789,-0.1182,1.0137,0.1527,-2.6870,-0.6412
14972,0.0730,-0.0513,0.9990,0.2901,-2.6260,-0.9924
14980,0.0662,-0.0618,1.0767,0.1832,-2.5954,-1.0992
14990,0.0745,-0.1106,1.0635,0.1985,-2.5496,-1.0840
15000,0.0750,-0.0881,0.9944,0.2443,-2.4427,-1.0534
15010,0.0718,-0.0386,1.0374,0.1679,-2.5191,-0.8702
15020,0.0679,-0.0759,1.0879,0.1374,-2.4580,-1.0076
15037,0.0776,-0.0959,0.9944,0.2748,-2.5344,-0.4275
15040,0.0767,-0.0576,0.9983,0.2137,-2.6565,-0.4580
15050,0.0662,-0.0417,1.0752,0.1069,-2.6412,-0.7328
15060,0.0671,-0.1089,1.0725,0.1679,-2.5191,-0.7176
15070,0.0764,-0.1062,1.0002,0.1374,-2.5649,-0.6260
15080,0.0679,-0.0361,1.0217,0.2595,-2.6107,-0.6870
15090,0.0674,-0.0671,1.0828,0.2137,-2.5496,-0.9160
15100,0.0762,-0.1245,1.0366,0.1374,-2.4275,-0.4427
15110,0.0754,-0.0676,0.9875,0.3664,-2.5649,-0.7176
15120,0.0701,-0.0393,1.0642,0.1832,-2.5802,-0.8702
15130,0.0745,-0.0942,1.0803,0.1069,-2.6565,-0.6107
15146,0.0779,-0.0735,0.9922,0.1985,-2.5954,-0.6718
15150,0.0754,-0.0515,1.0115,0.2748,-2.6718,-0.7786
15160,0.0715,-0.0547,1.0891,0.2901,-2.6107,-0.7176
15170,0.0740,-0.0991,1.0500,0.2748,-2.4427,-0.8855
15180,0.0771,-0.0854,0.9912,0.1527,-2.5344,-0.8702
15190,0.0654,-0.0420,1.0466,0.1832,-2.5496,-0.7786
15200,0.0693,-0.0908,1.0801,0.1985,-2.5496,-0.6260
15210,0.0798,-0.1125,1.0198,0.1679,-2.6565,-0.7939
15222,0.0703,-0.0469,1.0437,0.1221,-2.5802,-0.9313
15230,0.0654,-0.0513,1.0725,0.2137,-2.5649,-0.9771
15240,0.0762,-0.1106,1.0676,0.2137,-2.6260,-0.8855
15250,0.0767,-0.0916,0.9937,0.3053,-2.5038,-0.7634
15260,0.0647,-0.0422,1.0283,0.2595,-2.4733,-0.6718
15270,0.0723,-0.0730,1.0867,0.2290,-2.6412,-1.1145
15280,0.0774,-0.0981,0.9988,0.1221,-2.6260,-0.8855
15290,0.0703,-0.0417,1.0176,0.3359,-2.6565,-0.6412
15300,0.0688,-0.0698,1.0850,0.1985,-2.5496,-0.9466
15310,0.0776,-0.1157,1.0386,0.1527,-2.5802,-0.9924
15320,0.0720,-0.0701,0.9880,0.3053,-2.4580,-0.7786
15330,0.0654,-0.0508,1.0637,0.1221,-2.5344,-0.9771
15340,0.0701,-0.0977,1.0803,0.2595,-2.6718,-0.8550
15350,0.0769,-0.1143,1.0044,0.2443,-2.5802,-0.7634
15360,0.0730,-0.0608,1.0088,0.1832,-2.5344,-0.8244
15370,0.0662,-0.0586,1.0820,0.2595,-2.5344,-0.9618
15380,0.0725,-0.1118,1.0532,0.2901,-2.5802,-0.5954
15390,0.0769,-0.0947,0.9907,0.2137,-2.5649,-1.1298
15400,0.0681,-0.0527,1.0400,0.1679,-2.4580,-1.0687
15410,0.0686,-0.0889,1.0813,0.1069,-2.4885,-0.9924
15420,0.0764,-0.1230,1.0193,0.2290,-2.6412,-0.8244
15430,0.0745,-0.0630,0.9917,0.2443,-2.5649,-0.8702
15440,0.0676,-0.0547,1.0698,0.1069,-2.5496,-0.7634
15450,0.0725,-0.1089,1.0776,0.1679,-2.6412,-0.7176
15460,0.0784,-0.1008,0.9934,0.3053,-2.5649,-0.7939
15472,0.0715,-0.0503,1.0200,0.1832,-2.5496,-0.6565
15480,0.0696,-0.0703,1.0850,0.1221,-2.6412,-0.6412
15490,0.0735,-0.1238,1.0452,0.3053,-2.4580,-0.7023
15500,0.0776,-0.0803,0.9939,0.2137,-2.6412,-0.6718
15510,0.0679,-0.0452,1.0564,0.1527,-2.5496,-0.7481
15520,0.0710,-0.0928,1.0828,0.1985,-2.4580,-0.9771
15530,0.0796,-0.1160,1.0107,0.2290,-2.6565,-0.7634
15540,0.0710,-0.0547,1.0054,0.2443,-2.6870,-0.8092
15550,0.0662,-0.0632,1.0789,0.2748,-2.5496,-0.8550
15560,0.0728,-0.1160,1.0698,0.2137,-2.5649,-0.7786
15570,0.0776,-0.0942,0.9939,0.1679,-2.5496,-0.7481
15580,0.0657,-0.0530,1.0378,0.2595,-2.5496,-0.6565
15590,0.0686,-0.0889,1.0820,0.1832,-2.5802,-0.7786
15600,0.0752,-0.1250,1.0234,0.3053,-2.5191,-0.7481
15610,0.0747,-0.0669,0.9917,0.2443,-2.6565,-0.8397
15620,0.0674,-0.0522,1.0688,0.1527,-2.6565,-0.7481
15630,0.0691,-0.1135,1.0742,0.1832,-2.5496,-0.9618
15640,0.0764,-0.0796,0.9939,0.3053,-2.5496,-0.5954
15650,0.0662,-0.0569,1.0654,0.1679,-2.6412,-0.8092
15660,0.0723,-0.0999,1.0801,0.2290,-2.6107,-0.7328
15670,0.0762,-0.1189,1.0046,0.3053,-2.5496,-0.6565
15680,0.0754,-0.0559,1.0134,0.1221,-2.6565,-0.6565
15690,0.0671,-0.0659,1.0845,0.2137,-2.5954,-0.7176
15700,0.0723,-0.1250,1.0554,0.2748,-2.4580,-0.9924
15710,0.0808,-0.1021,0.9983,0.1985,-2.5496,-0.8244
15722,0.0669,-0.0564,1.0396,0.2595,-2.5191,-0.8092
15730,0.0728,-0.0994,1.0845,0.1527,-2.4580,-0.8550
15740,0.0784,-0.1313,1.0283,0.2595,-2.5954,-0.8397
15750,0.0762,-0.0720,0.9946,0.2901,-2.6412,-0.9771
15760,0.0698,-0.0679,1.0715,0.2290,-2.6412,-0.5649
15770,0.0740,-0.1145,1.0789,0.1832,-2.6260,-0.9313
15780,0.0764,-0.1262,1.0012,0.2290,-2.5344,-0.8702
15790,0.0759,-0.0752,1.0137,0.2290,-2.6260,-0.5038
15800,0.0681,-0.0854,1.0854,0.1527,-2.5954,-0.6718
15810,0.0730,-0.1465,1.0505,0.2137,-2.4275,-0.8855
15820,0.0803,-0.1143,0.9912,0.1985,-2.5191,-0.8092
15830,0.0708,-0.0593,1.0425,0.2748,-2.5344,-0.4580
15840,0.0713,-0.1067,1.0823,0.2443,-2.4275,-0.6412
15850,0.0813,-0.1443,1.0278,0.1679,-2.6260,-0.7634
15860,0.0752,-0.0791,0.9929,0.1832,-2.5038,-0.8244
15870,0.0698,-0.0708,1.0632,0.2443,-2.5496,-0.9924
15880,0.0754,-0.1221,1.0764,0.1221,-2.7176,-0.7481
15890,0.0769,-0.1240,0.9973,0.2137,-2.5344,-0.6565
15900,0.0750,-0.0732,1.0112,0.2443,-2.5344,-0.8855
15910,0.0710,-0.0894,1.0874,0.1374,-2.6565,-1.2672
15920,0.0725,-0.1365,1.0540,0.3206,-2.5191,-0.5649
15930,0.0806,-0.1174,0.9951,0.2443,-2.5496,-0.6412
15940,0.0698,-0.0691,1.0400,0.1832,-2.5344,-0.6412
15950,0.0691,-0.1150,1.0835,0.2290,-2.5496,-1.0687
15960,0.0808,-0.1399,1.0273,0.1374,-2.6107,-0.8702
15972,0.0752,-0.0740,1.0283,0.1985,-2.5344,-1.1450
15980,0.0693,-0.0957,1.0840,0.2290,-2.5649,-0.5649
15990,0.0742,-0.1460,1.0371,0.2595,-2.4427,-0.9160
16000,0.0776,-0.0972,0.9919,0.2748,-2.6260,-0.8855
16010,0.0664,-0.0693,1.0566,0.2748,-2.5344,-0.6565
16020,0.0708,-0.1155,1.0789,0.2443,-2.5038,-0.6870
16030,0.0793,-0.1343,1.0181,0.1832,-2.6718,-0.9313
16040,0.0745,-0.0740,0.9988,0.2443,-2.5344,-0.5344
16050,0.0703,-0.0852,1.0776,0.1985,-2.6107,-0.5649
16060,0.0725,-0.1343,1.0715,0.1069,-2.5191,-0.9618
16070,0.0769,-0.1187,0.9934,0.3206,-2.4733,-0.8855
16080,0.0735,-0.0725,1.0249,0.2290,-2.5038,-0.7328
16090,0.0730,-0.0979,1.0854,0.2137,-2.5649,-0.9313
16100,0.0754,-0.1379,1.0359,0.2137,-2.4733,-0.7634
16110,0.0784,-0.1013,0.9961,0.2595,-2.5954,-0.6107
16120,0.0688,-0.0691,1.0544,0.2748,-2.5802,-0.6565
16130,0.0723,-0.1179,1.0781,0.2290,-2.6412,-0.9008
16140,0.0786,-0.1338,1.0146,0.1832,-2.5191,-1.2672
16156,0.0688,-0.0684,1.0425,0.1221,-2.4885,-1.0382
16160,0.0679,-0.0784,1.0730,0.1985,-2.5038,-0.5038
16170,0.0730,-0.1321,1.0737,0.0763,-2.5802,-0.9466
16180,0.0762,-0.1274,0.9954,0.1527,-2.4885,-0.9008
16190,0.0730,-0.0740,1.0215,0.1527,-2.4733,-0.7481
16200,0.0715,-0.0898,1.0857,0.1527,-2.4733,-0.6870
16210,0.0728,-0.1389,1.0381,0.2595,-2.5191,-1.0534
16222,0.0754,-0.1106,0.9927,0.2443,-2.4733,-1.0382
16230,0.0635,-0.0630,1.0554,0.2290,-2.6260,-0.8397
16240,0.0730,-0.1113,1.0769,0.2595,-2.5649,-0.8550
16250,0.0833,-0.1536,1.0132,0.1374,-2.6107,-0.7786
16260,0.0754,-0.0857,0.9998,0.1832,-2.6718,-1.1603
16270,0.0667,-0.0803,1.0715,0.2595,-2.7023,-0.7176
16280,0.0764,-0.1396,1.0735,0.1985,-2.6565,-0.7176
16290,0.0771,-0.1279,0.9954,0.2595,-2.5496,-0.7634
16300,0.0710,-0.0781,1.0215,0.2137,-2.5191,-0.9466
16310,0.0710,-0.1016,1.0891,0.1832,-2.5344,-0.8092
16320,0.0757,-0.1411,1.0449,0.3511,-2.4733,-0.5191
16330,0.0725,-0.0676,1.0071,0.2901,-2.5496,-0.8702
16340,0.0649,-0.0923,1.0818,0.2290,-2.6260,-0.6718
16350,0.0747,-0.1440,1.0671,0.0611,-2.5038,-0.7328
16360,0.0762,-0.1108,0.9890,0.2748,-2.4580,-0.9771
16370,0.0708,-0.0757,1.0364,0.2443,-2.4275,-0.9313
16380,0.0720,-0.1089,1.0845,0.1832,-2.6412,-0.5038
16390,0.0754,-0.1497,1.0308,0.2748,-2.4733,-0.5344
16400,0.0786,-0.0952,0.9932,0.1985,-2.5802,-0.9008
16410,0.0701,-0.0723,1.0593,0.1985,-2.5649,-0.7634
16420,0.0737,-0.1208,1.0754,0.3664,-2.5802,-1.3282
16430,0.0789,-0.1428,1.0137,0.1985,-2.7023,-0.8397
16440,0.0745,-0.0725,1.0000,0.1679,-2.5802,-0.4122
16450,0.0703,-0.0886,1.0791,0.1985,-2.6107,-0.7634
16460,0.0742,-0.1409,1.0688,0.1679,-2.5954,-0.8702
16472,0.0784,-0.1245,0.9951,0.3206,-2.5344,-1.1908
16480,0.0684,-0.0688,1.0281,0.2137,-2.5649,-0.8855
16490,0.0698,-0.0957,1.0911,0.1069,-2.5649,-0.6718
16500,0.0789,-0.1365,1.0386,0.3359,-2.5191,-0.8397
16510,0.0803,-0.1128,0.9927,0.2137,-2.5038,-0.7786
16520,0.0667,-0.0674,1.0591,0.1985,-2.5954,-0.7328
16530,0.0703,-0.1118,1.0806,0.3053,-2.4733,-1.0229
16540,0.0811,-0.1423,1.0154,0.2137,-2.6565,-0.9160
16550,0.0762,-0.0850,0.9983,0.2290,-2.6412,-0.7328
16560,0.0652,-0.0830,1.0742,0.2137,-2.5496,-0.5649
16570,0.0730,-0.1372,1.0764,0.1985,-2.5802,-0.7481
16580,0.0798,-0.1343,0.9966,0.3206,-2.5954,-0.2748
16590,0.0701,-0.0740,1.0139,0.2137,-2.4733,-0.7939
16600,0.0740,-0.0979,1.0833,0.1527,-2.5649,-0.6260
16610,0.0740,-0.1357,1.0452,0.3511,-2.5038,-0.5649
16620,0.0793,-0.1121,0.9924,0.3206,-2.5038,-0.5038
16630,0.0725,-0.0720,1.0503,0.2137,-2.5802,-1.0229
16640,0.0713,-0.1116,1.0813,0.2748,-2.5344,-0.7176
16650,0.0781,-0.1570,1.0229,0.2748,-2.5954,-0.7023
16660,0.0776,-0.1011,0.9922,0.2595,-2.6565,-1.0382
16670,0.0688,-0.0837,1.0625,0.2443,-2.6870,-0.9313
16680,0.0723,-0.1426,1.0815,0.2137,-2.6260,-0.6260
16690,0.0776,-0.1211,0.9929,0.1985,-2.5496,-0.5344
16700,0.0684,-0.0771,1.0537,0.1832,-2.5191,-0.4275
16710,0.0720,-0.1279,1.0789,0.2595,-2.5191,-1.1603
16722,0.0767,-0.1506,1.0217,0.1832,-2.6718,-0.6412
16730,0.0769,-0.1003,0.9973,0.1985,-2.5802,-0.2901
16740,0.0679,-0.1011,1.0664,0.2595,-2.5649,-0.7176
16750,0.0764,-0.1584,1.0808,0.1069,-2.6412,-0.8550
16760,0.0801,-0.1572,1.0024,0.2443,-2.6107,-0.5038
16770,0.0762,-0.0859,1.0051,0.1985,-2.4733,-0.9771
16780,0.0706,-0.0864,1.0842,0.0916,-2.5649,-0.9618
16790,0.0730,-0.1360,1.0659,0.2748,-2.5954,-0.8244
16800,0.0784,-0.1318,0.9961,0.2443,-2.4122,-0.9466
16810,0.0708,-0.0776,1.0276,0.1679,-2.5038,-1.1450
16820,0.0688,-0.1021,1.0811,0.2290,-2.5191,-0.8550
16830,0.0752,-0.1414,1.0483,0.2443,-2.4885,-0.7634
16840,0.0789,-0.1138,0.9927,0.1679,-2.4733,-0.7634
16850,0.0657,-0.0903,1.0513,0.2443,-2.5038,-0.6412
16860,0.0737,-0.1392,1.0859,0.1832,-2.6107,-0.5649
16870,0.0781,-0.1616,1.0239,0.2595,-2.5954,-0.4580
16880,0.0735,-0.1089,0.9875,0.2901,-2.5344,-0.6107
16890,0.0703,-0.0874,1.0681,0.1527,-2.6565,-0.7786
16900,0.0740,-0.1580,1.0750,0.1679,-2.6565,-1.1450
16910,0.0784,-0.1472,1.0042,0.2290,-2.5344,-0.7939
16920,0.0774,-0.0891,1.0110,0.1832,-2.5802,-0.4580
16930,0.0693,-0.0903,1.0793,0.1832,-2.4733,-0.6412
16940,0.0737,-0.1514,1.0667,0.2290,-2.5802,-0.6260
16950,0.0828,-0.1240,0.9968,0.1527,-2.5954,-0.5038
16960,0.0728,-0.0713,1.0234,0.2443,-2.4122,-1.0840
16972,0.0713,-0.1204,1.0720,0.3206,-2.5038,-0.7786
16980,0.0747,-0.1643,1.0479,0.1527,-2.5344,-1.2824
16990,0.0737,-0.1179,0.9897,0.2901,-2.5038,-1.1603
17000,0.0693,-0.0930,1.0520,0.2137,-2.6107,-1.1298
17010,0.0742,-0.1296,1.0872,0.1679,-2.6107,-0.8244
17020,0.0781,-0.1689,1.0188,0.3206,-2.4427,-0.6870
17030,0.0771,-0.1091,0.9961,0.2137,-2.5802,-0.5649
17040,0.0715,-0.1306,1.0813,0.1985,-2.5496,-0.7023
17050,0.0759,-0.1494,1.0444,0.2901,-2.5496,-0.9160
17060,0.0791,-0.1152,0.9893,0.3053,-2.4275,-1.1756
17070,0.0708,-0.0808,1.0564,0.1374,-2.5344,-1.4656
17080,0.0732,-0.1274,1.0823,0.2137,-2.5038,-0.9160
17090,0.0779,-0.1663,1.0254,0.2137,-2.5344,-0.2595
17100,0.0789,-0.1113,0.9971,0.1832,-2.7023,-0.1374
17110,0.0681,-0.1064,1.0676,0.1527,-2.6107,-1.0229
17120,0.0767,-0.1570,1.0818,0.1374,-2.6260,-1.1908
17130,0.0833,-0.1609,1.0051,0.2595,-2.5954,-0.8702
17140,0.0706,-0.0947,1.0037,0.2290,-2.5038,-0.3511
17150,0.0715,-0.1116,1.0825,0.0916,-2.5649,-0.6260
17166,0.0806,-0.1619,1.0269,0.1527,-2.4733,-1.0076
17170,0.0771,-0.1382,0.9958,0.2290,-2.3969,-0.4580
17180,0.0750,-0.1067,1.0266,0.2137,-2.5038,-0.2748
17190,0.0706,-0.1160,1.0850,0.1679,-2.5344,-1.0687
17200,0.0730,-0.1597,1.0459,0.1985,-2.5038,-1.2824
17210,0.0833,-0.1194,0.9924,0.2443,-2.6260,-0.8702
17222,0.0708,-0.0779,1.0439,0.2595,-2.5191,-0.5496
17230,0.0715,-0.1189,1.0840,0.1985,-2.4580,-0.2595
17240,0.0808,-0.1523,1.0244,0.2901,-2.5496,-1.0687
17250,0.0767,-0.1326,0.9941,0.2595,-2.4580,-1.1908
17260,0.0684,-0.0981,1.0637,0.2443,-2.5344,-0.3969
17270,0.0723,-0.1394,1.0852,0.1832,-2.5954,-0.4275
17280,0.0803,-0.1521,1.0105,0.2748,-2.4427,-1.2977
17290,0.0745,-0.0945,1.0039,0.2748,-2.6412,-0.9771
17300,0.0708,-0.1013,1.0759,0.0611,-2.5954,-0.6107
17310,0.0718,-0.1406,1.0710,0.1832,-2.5344,-0.8550
17320,0.0803,-0.1450,1.0027,0.1985,-2.6260,-1.2824
17330,0.0771,-0.1028,1.0127,0.2137,-2.6412,-0.3511
17340,0.0684,-0.1189,1.0789,0.1985,-2.5802,-0.9466
17350,0.0771,-0.1658,1.0640,0.1374,-2.5649,-1.4962
17360,0.0798,-0.1570,0.9988,0.2595,-2.5496,-0.7023
17370,0.0671,-0.0876,1.0276,0.3511,-2.4580,-0.6107
17380,0.0725,-0.1157,1.0852,0.1832,-2.6412,-1.2977
17390,0.0820,-0.1550,1.0071,0.1832,-2.7023,-1.0534
17400,0.0745,-0.1152,1.0076,0.2290,-2.5649,-0.7023
17410,0.0708,-0.1143,1.0798,0.1832,-2.5802,-0.6718
17420,0.0737,-0.1816,1.0696,0.1832,-2.5954,-0.9618
17430,0.0789,-0.1313,0.9929,0.2595,-2.4580,-1.0992
17440,0.0732,-0.0925,1.0237,0.1832,-2.5496,-0.5802
17450,0.0725,-0.1150,1.0859,0.1832,-2.5344,-0.3664
17460,0.0762,-0.1572,1.0486,0.2595,-2.4122,-1.0382
17472,0.0811,-0.1560,0.9939,0.2595,-2.5191,-0.9160
17480,0.0696,-0.0930,1.0425,0.2443,-2.4885,-0.5038
17490,0.0703,-0.1233,1.0837,0.2901,-2.5344,-1.2214
17500,0.0818,-0.1614,1.0295,0.2137,-2.5802,-0.8550
17510,0.0786,-0.1086,0.9941,0.2290,-2.5802,-0.1069
17520,0.0681,-0.0898,1.0627,0.2443,-2.5496,-1.2519
17530,0.0752,-0.1367,1.0837,0.1374,-2.5954,-0.8244
17540,0.0784,-0.1699,1.0112,0.1832,-2.5496,-0.5344
17550,0.0750,-0.1011,0.9995,0.2595,-2.6565,-1.2824
17560,0.0710,-0.1038,1.0759,0.1985,-2.7023,-0.8092
17570,0.0708,-0.1541,1.0742,0.2443,-2.6107,-1.0687
17580,0.0818,-0.1538,1.0042,0.2443,-2.5802,-0.9924
17590,0.0757,-0.0786,1.0122,0.2443,-2.6565,-0.2901
17600,0.0703,-0.0940,1.0796,0.3206,-2.5802,-1.3588
17610,0.0757,-0.1809,1.0620,0.2595,-2.4733,-0.0916
17620,0.0808,-0.1562,1.0005,0.2290,-2.4122,-1.2824
17630,0.0696,-0.0981,1.0234,0.3511,-2.4885,-0.3969
17640,0.0732,-0.1379,1.0881,0.1527,-2.5954,-1.2824
17650,0.0762,-0.1897,1.0481,0.1679,-2.4733,-0.4275
17660,0.0789,-0.1335,0.9871,0.3969,-2.4733,-0.9618
17670,0.0701,-0.1062,1.0442,0.1985,-2.6412,-0.4885
17680,0.0728,-0.1470,1.0872,0.2748,-2.6107,-1.1908
17690,0.0781,-0.1792,1.0359,0.3206,-2.4580,-0.6107
17700,0.0784,-0.1201,0.9976,0.3053,-2.5344,-0.6412
17710,0.0691,-0.1260,1.0537,0.3511,-2.5954,-1.4504
17722,0.0732,-0.1570,1.0630,0.2595,-2.4580,-1.0992
17730,0.0798,-0.1753,1.0232,0.1832,-2.5344,-1.3282
17740,0.0715,-0.0896,1.0264,0.1374,-2.5344,-0.9008
17750,0.0715,-0.1389,1.0825,0.1374,-2.4580,-0.7939
17760,0.0762,-0.1931,1.0488,0.2595,-2.5038,-0.6718
17770,0.0796,-0.1260,0.9978,0.1679,-2.4885,-1.0229
17780,0.0669,-0.1057,1.0361,0.2748,-2.4580,-0.5802
17790,0.0718,-0.1433,1.0833,0.1985,-2.5954,-1.1450
17800,0.0793,-0.1733,1.0361,0.1832,-2.5954,-0.6412
17810,0.0754,-0.1289,0.9880,0.3053,-2.4733,-1.5115
17820,0.0698,-0.0930,1.0535,0.1832,-2.5649,-0.2137
17830,0.0706,-0.1506,1.0833,0.1374,-2.5191,-1.4809
17840,0.0764,-0.1794,1.0193,0.2748,-2.5649,-0.3359
17850,0.0815,-0.1299,1.0015,0.1374,-2.5954,-1.1756
17860,0.0693,-0.1121,1.0664,0.1832,-2.5496,-0.1832
17870,0.0725,-0.1694,1.0781,0.2443,-2.5802,-0.5496
17880,0.0798,-0.1748,1.0122,0.1985,-2.6412,-1.3435
17890,0.0737,-0.1135,0.9988,0.3359,-2.5649,-0.0458
17900,0.0696,-0.1206,1.0774,0.2137,-2.6412,-1.1908
17910,0.0754,-0.1631,1.0767,0.2290,-2.6107,-0.6565
17920,0.0803,-0.1609,1.0010,0.3359,-2.4580,-0.2901
17930,0.0742,-0.1162,1.0098,0.1985,-2.6718,-1.5115
17940,0.0706,-0.1243,1.0835,0.1832,-2.5802,-0.8092
17950,0.0752,-0.1750,1.0625,0.2595,-2.4275,-0.4733
17960,0.0830,-0.1553,0.9968,0.1221,-2.5802,-1.1908
17978,0.0691,-0.1348,1.0815,0.2595,-2.5191,-0.8397
17980,0.0691,-0.1348,1.0815,0.2595,-2.5191,-0.8397
17990,0.0798,-0.1863,1.0542,0.0916,-2.5496,-1.1298
18000,0.0830,-0.1418,0.9883,0.2137,-2.4427,-0.1832
18010,0.0701,-0.1018,1.0339,0.2137,-2.4733,-1.5420
18020,0.0745,-0.1646,1.0874,0.1374,-2.5954,-0.0611
18030,0.0779,-0.1882,1.0371,0.2901,-2.5344,-1.1756
18040,0.0786,-0.1223,0.9915,0.2901,-2.4733,-1.1908
18050,0.0681,-0.1091,1.0532,0.1679,-2.6412,-0.1374
18060,0.0718,-0.1562,1.0813,0.2290,-2.5649,-1.0687
18070,0.0784,-0.1980,1.0234,0.2290,-2.5344,-0.1221
18080,0.0786,-0.1235,0.9968,0.1679,-2.6565,-0.9008
18090,0.0737,-0.1306,1.0862,0.1985,-2.6260,-0.3511
18100,0.0767,-0.1682,1.0498,0.3817,-2.4275,-0.9924
18110,0.0813,-0.1609,0.9934,0.1679,-2.4733,-0.7634
18120,0.0693,-0.0969,1.0439,0.1985,-2.6412,-0.3206
18130,0.0715,-0.1436,1.0796,0.2595,-2.4427,-1.3130
18140,0.0815,-0.1924,1.0405,0.1221,-2.5344,-0.3817
18150,0.0806,-0.1389,0.9927,0.3053,-2.6718,-0.8397
18160,0.0674,-0.1221,1.0527,0.2595,-2.5038,-1.4962
18176,0.0747,-0.2073,1.0620,0.2443,-2.5496,-0.1527
18180,0.0784,-0.1772,1.0212,0.3969,-2.6107,-0.4122
18190,0.0789,-0.1489,0.9941,0.2290,-2.6260,-1.4198
18200,0.0737,-0.1348,1.0703,0.1985,-2.6718,-0.5344
18210,0.0728,-0.1824,1.0740,0.2748,-2.5954,-0.9313
18227,0.0784,-0.1558,0.9883,0.2137,-2.4733,-1.0076
18231,0.0791,-0.1187,1.0012,0.1679,-2.6260,-0.1985
18240,0.0691,-0.1160,1.0688,0.2137,-2.5191,-0.5191
18250,0.0737,-0.1990,1.0762,0.0916,-2.6107,-1.6031
18260,0.0801,-0.1775,1.0005,0.2137,-2.5802,-0.5191
18270,0.0745,-0.1196,1.0105,0.2595,-2.5344,-0.1374
18280,0.0708,-0.1262,1.0786,0.1374,-2.6565,-1.3893
18290,0.0762,-0.1926,1.0684,0.2595,-2.5038,-1.1450
18300,0.0828,-0.1887,0.9937,0.2443,-2.5038,-0.0153
18310,0.0732,-0.1108,1.0222,0.2443,-2.5954,-1.4198
18320,0.0706,-0.1284,1.0823,0.1527,-2.5496,-1.2214
18330,0.0750,-0.1692,1.0520,0.2443,-2.4275,-0.2290
18340,0.0830,-0.1777,0.9961,0.1679,-2.5954,-0.2443
18350,0.0713,-0.1116,1.0354,0.1985,-2.4885,-1.4504
18360,0.0706,-0.1409,1.0847,0.2443,-2.5191,-1.6183
18370,0.0801,-0.2134,1.0459,0.2443,-2.5038,-0.8702
18380,0.0793,-0.1492,0.9890,0.2901,-2.5344,-0.1069
18390,0.0720,-0.1196,1.0486,0.2748,-2.5191,-0.8092
18400,0.0732,-0.1631,1.0854,0.0611,-2.6107,-1.7557
18410,0.0779,-0.1919,1.0298,0.2137,-2.5344,-0.8244
18420,0.0818,-0.1328,0.9912,0.2748,-2.6107,-0.0763
18430,0.0725,-0.1663,1.0823,0.1679,-2.5191,-0.6870
18440,0.0793,-0.1885,1.0635,0.2290,-2.5344,-1.7557
18450,0.0771,-0.1631,0.9915,0.2443,-2.4122,-1.1908
18460,0.0737,-0.1260,1.0295,0.1679,-2.4885,-0.2137
18478,0.0762,-0.1919,1.0811,0.1221,-2.6107,-0.0611
18481,0.0784,-0.1968,1.0471,0.2595,-2.4275,0.0000
18490,0.0818,-0.1479,0.9966,0.2290,-2.5954,-1.2519
18500,0.0703,-0.1189,1.0393,0.2595,-2.5496,-1.7099
18511,0.0710,-0.1748,1.0784,0.2137,-2.5344,-1.2977
18520,0.0798,-0.1882,1.0432,0.1985,-2.6107,-0.9160
18530,0.0762,-0.1560,0.9917,0.2443,-2.4885,-0.2748
18540,0.0684,-0.1365,1.0461,0.2595,-2.5496,0.0305
18550,0.0715,-0.1577,1.0874,0.1679,-2.5802,-0.8550
18560,0.0789,-0.1858,1.0303,0.2443,-2.5496,-1.7405
18570,0.0781,-0.1704,0.9919,0.2595,-2.5191,-1.8015
18580,0.0698,-0.1260,1.0564,0.2137,-2.6565,-1.3435
18590,0.0701,-0.1814,1.0767,0.2290,-2.5496,-0.9466
18600,0.0801,-0.2092,1.0298,0.2443,-2.5802,-0.7481
18610,0.0789,-0.1746,0.9919,0.2290,-2.5954,0.0305
18620,0.0688,-0.1150,1.0608,0.2137,-2.5496,0.1527
18630,0.0730,-0.1746,1.0781,0.2443,-2.6565,-0.0611
18640,0.0781,-0.2039,1.0188,0.2595,-2.5649,-0.0916
18650,0.0759,-0.1648,0.9907,0.2748,-2.6107,-0.7481
18660,0.0728,-0.1384,1.0674,0.1374,-2.5802,-1.5420
18670,0.0728,-0.2007,1.0798,0.1679,-2.5954,-1.6031
18680,0.0798,-0.1992,1.0117,0.3053,-2.5954,-1.2519
18690,0.0789,-0.1265,0.9988,0.0763,-2.7481,-1.7099
18700,0.0674,-0.1394,1.0720,0.1985,-2.4885,-1.6641
18710,0.0745,-0.1863,1.0789,0.2748,-2.5649,-1.4351
18722,0.0833,-0.1743,0.9939,0.2137,-2.4885,-0.4275
18730,0.0771,-0.1228,1.0020,0.2137,-2.5191,-0.5191
18740,0.0718,-0.1526,1.0776,0.1832,-2.5191,0.0153
18750,0.0747,-0.1885,1.0784,0.1069,-2.5954,-0.3053
18760,0.0808,-0.1724,0.9954,0.2443,-2.5802,0.0153
18770,0.0747,-0.1304,1.0095,0.1374,-2.6565,-0.5802
18780,0.0747,-0.1846,1.0850,0.1832,-2.7176,-0.9466
18790,0.0789,-0.2002,1.0264,0.1832,-2.6718,-1.0534
18800,0.0757,-0.1819,0.9900,0.2901,-2.4885,-1.0840
18810,0.0710,-0.1558,1.0601,0.1985,-2.6107,-1.3893
18820,0.0771,-0.1641,1.0806,0.1527,-2.6718,-1.0992
18830,0.0801,-0.1846,1.0154,0.1985,-2.5496,-1.3130
18840,0.0781,-0.1482,1.0007,0.1985,-2.6260,-1.6947
18850,0.0708,-0.1418,1.0652,0.2137,-2.5496,-1.0840
18860,0.0740,-0.1853,1.0813,0.2595,-2.6107,-1.6947
18870,0.0833,-0.2317,1.0154,0.1527,-2.7481,-1.6336
18880,0.0781,-0.1426,0.9980,0.2443,-2.5802,-1.5573
18890,0.0686,-0.1433,1.0691,0.2443,-2.6260,-1.4656
18900,0.0774,-0.1755,1.0786,0.1221,-2.7328,-1.7710
18910,0.0791,-0.2004,1.0024,0.2290,-2.5038,-1.7405
18920,0.0789,-0.1509,1.0056,0.2748,-2.5344,-1.6489
18930,0.0732,-0.1489,1.0774,0.1527,-2.6718,-1.8015
18940,0.0728,-0.2068,1.0720,0.2443,-2.6260,-1.7710
18950,0.0815,-0.2310,1.0046,0.2137,-2.5954,-1.4656
18960,0.0762,-0.1448,1.0012,0.1679,-2.6260,-1.7405
18972,0.0728,-0.1531,1.0710,0.3359,-2.6107,-1.7252
18980,0.0776,-0.2163,1.0703,0.1527,-2.5802,-1.8168
18990,0.0828,-0.1726,0.9968,0.1527,-2.5649,-1.7863
19000,0.0745,-0.1589,1.0103,0.3053,-2.5038,-0.7939
19010,0.0728,-0.1711,1.0835,0.1374,-2.6412,-0.1985
19020,0.0759,-0.2417,1.0642,0.2137,-2.5344,0.1221
19030,0.0801,-0.2249,0.9951,0.1527,-2.5191,-1.2672
19040,0.0750,-0.1758,1.0193,0.1985,-2.5649,-1.8626
19050,0.0706,-0.1653,1.0808,0.2595,-2.5496,-1.3282
19060,0.0789,-0.2373,1.0598,0.1985,-2.4733,-0.1221
19070,0.0825,-0.1924,1.0000,0.1679,-2.5649,-0.1069
19080,0.0737,-0.1753,1.0166,0.2748,-2.5038,-0.8855
19090,0.0747,-0.1926,1.0798,0.1679,-2.5496,-1.7710
19100,0.0791,-0.2222,1.0674,0.1679,-2.5649,-0.9771
19110,0.0801,-0.2256,0.9915,0.2443,-2.3969,0.0763
19120,0.0696,-0.1614,1.0623,0.2443,-2.5496,-0.7786
19130,0.0757,-0.2195,1.0813,0.1985,-2.5496,-1.5115
19140,0.0796,-0.2224,1.0166,0.1832,-2.6107,-1.2824
19150,0.0754,-0.1519,0.9954,0.3053,-2.6107,-0.3359
19160,0.0754,-0.1497,1.0769,0.1221,-2.6412,0.2137
19170,0.0728,-0.2029,1.0803,0.2137,-2.6565,-0.6412
19180,0.0837,-0.2307,1.0142,0.2595,-2.5802,-1.8168
19191,0.0789,-0.1697,0.9976,0.1832,-2.6260,-1.3740
19200,0.0710,-0.1616,1.0632,0.2443,-2.6107,0.2137
19210,0.0723,-0.2307,1.0813,0.1832,-2.5496,-0.7939
19224,0.0847,-0.2512,1.0183,0.1679,-2.5954,-1.3893
19230,0.0747,-0.1550,0.9939,0.2901,-2.5802,-0.3969
19240,0.0708,-0.1797,1.0708,0.1069,-2.6107,-0.1679
19250,0.0742,-0.2283,1.0813,0.1679,-2.6260,-1.6489
19260,0.0789,-0.2395,1.0000,0.3053,-2.5191,-0.5954
19270,0.0791,-0.1760,0.9988,0.1832,-2.6718,-0.1374
19280,0.0720,-0.1721,1.0710,0.2290,-2.7328,-1.5725
19290,0.0747,-0.2458,1.0806,0.2595,-2.5954,-0.9160
19300,0.0818,-0.2419,1.0115,0.2443,-2.6718,0.4122
19310,0.0813,-0.2058,0.9963,0.2290,-2.6565,-1.2519
19320,0.0674,-0.1887,1.0745,0.2137,-2.5496,-0.3511
19330,0.0757,-0.2473,1.0806,0.1374,-2.5802,0.0916
19340,0.0801,-0.2256,1.0110,0.2901,-2.6260,-1.4962
19350,0.0779,-0.1655,0.9954,0.2443,-2.5954,-1.3588
19360,0.0703,-0.1843,1.0723,0.1832,-2.6565,-0.1069
19370,0.0737,-0.2212,1.0784,0.1985,-2.5954,-0.9466
19380,0.0833,-0.2324,1.0063,0.2137,-2.4733,-1.4809
19390,0.0735,-0.1819,1.0042,0.2290,-2.6412,-0.3359
19400,0.0657,-0.1780,1.0740,0.1985,-2.5344,-0.0458
19410,0.0754,-0.2432,1.0742,0.1679,-2.5649,-1.4504
19420,0.0840,-0.2529,1.0071,0.2137,-2.6107,-1.0687
19430,0.0732,-0.1724,1.0015,0.2290,-2.6107,-0.3053
19440,0.0720,-0.1887,1.0828,0.1221,-2.5038,-1.3588
19450,0.0767,-0.2253,1.0771,0.2137,-2.6412,-1.8168
19460,0.0818,-0.2251,1.0029,0.2443,-2.6107,0.3664
19473,0.0701,-0.1614,1.0425,0.3053,-2.4580,-1.5878
19480,0.0764,-0.2144,1.0840,0.1679,-2.5802,-0.6870
19490,0.0791,-0.2227,1.0317,0.2595,-2.5954,-0.5649
19500,0.0774,-0.2119,0.9895,0.2290,-2.5038,-1.7252
19510,0.0725,-0.1843,1.0483,0.2290,-2.6412,0.0153
19520,0.0710,-0.2139,1.0779,0.2748,-2.4885,-0.9466
19530,0.0798,-0.2559,1.0342,0.1985,-2.5191,-1.6183
19540,0.0815,-0.1692,0.9976,0.2137,-2.5649,-0.3359
19550,0.0696,-0.1902,1.0417,0.2748,-2.5038,-1.3282
19560,0.0730,-0.2200,1.0808,0.1679,-2.5649,-0.3511
19570,0.0793,-0.2551,1.0432,0.1832,-2.5191,-0.9924
19580,0.0774,-0.1689,0.9897,0.2290,-2.4580,-1.5573
19590,0.0723,-0.1934,1.0437,0.1832,-2.5649,-0.0305
19600,0.0745,-0.2122,1.0845,0.2290,-2.6260,-1.4809
19610,0.0762,-0.2739,1.0327,0.2137,-2.4580,-0.3511
19620,0.0813,-0.2275,0.9990,0.0916,-2.5038,-1.0992
19630,0.0686,-0.1853,1.0476,0.1679,-2.5802,-0.9771
19640,0.0725,-0.2358,1.0825,0.1985,-2.4885,-0.0305
19650,0.0828,-0.2859,1.0391,0.2137,-2.5954,-1.4198
19660,0.0769,-0.2258,0.9922,0.2290,-2.5038,0.0000
19670,0.0671,-0.1804,1.0427,0.2595,-2.5038,-1.6336
19680,0.0742,-0.2039,1.0845,0.1527,-2.5496,-0.4885
19690,0.0784,-0.2502,1.0376,0.1527,-2.4885,-1.4656
19700,0.0811,-0.2424,0.9897,0.2901,-2.5496,-0.1527
19710,0.0718,-0.2075,1.0449,0.2137,-2.6565,-1.1450
19723,0.0740,-0.2480,1.0793,0.1832,-2.6565,-1.1450
19730,0.0820,-0.2805,1.0391,0.2748,-2.5344,-1.0840
19740,0.0798,-0.2219,0.9907,0.1832,-2.6107,-0.2748
19750,0.0696,-0.1848,1.0437,0.2443,-2.4885,-1.2519
19760,0.0752,-0.2058,1.0852,0.1985,-2.5496,-0.6718
19770,0.0808,-0.2390,1.0449,0.1679,-2.5344,-0.8855
19780,0.0798,-0.1846,0.9866,0.3053,-2.4885,-1.1756
19790,0.0737,-0.1575,1.0481,0.2290,-2.5344,-0.1374
19800,0.0718,-0.2151,1.0818,0.1832,-2.5038,-1.3740
19810,0.0818,-0.2378,1.0005,0.2595,-2.5649,-0.0916
19820,0.0754,-0.1743,1.0032,0.1985,-2.5649,-1.4046
19830,0.0732,-0.2000,1.0771,0.1679,-2.6412,-1.3588
19840,0.0745,-0.2126,1.0720,0.2443,-2.5954,-0.0611
19850,0.0828,-0.2585,1.0046,0.2443,-2.5954,-1.5878
19860,0.0759,-0.1658,1.0037,0.2137,-2.6260,0.0458
19870,0.0684,-0.1956,1.0684,0.2137,-2.5191,-0.9924
19880,0.0735,-0.2354,1.0752,0.2290,-2.5649,-0.8244
19890,0.0820,-0.2458,1.0063,0.2137,-2.5802,-0.1527
19900,0.0718,-0.2087,0.9973,0.2748,-2.5649,-1.6031
19910,0.0713,-0.2080,1.0762,0.1985,-2.6565,-0.3969
19920,0.0732,-0.2642,1.0767,0.1985,-2.6107,-1.1603
19930,0.0791,-0.2642,1.0037,0.2595,-2.5344,-0.3206
19940,0.0798,-0.1980,1.0012,0.2443,-2.7328,-1.1908
19950,0.0715,-0.1904,1.0737,0.2137,-2.5191,0.0458
19960,0.0710,-0.2368,1.0818,0.2443,-2.5802,-1.5267
19973,0.0801,-0.2368,0.9900,0.2748,-2.4733,-0.7939
19980,0.0754,-0.2080,0.9946,0.1374,-2.5344,-1.2977
19990,0.0713,-0.2131,1.0681,0.2595,-2.5954,-0.3511
20000,0.0752,-0.2610,1.0859,0.1985,-2.6565,-1.2214
20010,0.0793,-0.2405,1.0107,0.1985,-2.5954,-0.2290
20020,0.0759,-0.1868,0.9968,0.2901,-2.5954,-1.5115
20030,0.0718,-0.2026,1.0747,0.0916,-2.6565,-0.8092
20040,0.0718,-0.2432,1.0737,0.2595,-2.5802,-0.8855
20054,0.0798,-0.2366,0.9895,0.2137,-2.4885,-0.9160
20060,0.0789,-0.2046,0.9971,0.1221,-2.6107,-0.5649
20070,0.0723,-0.1995,1.0642,0.2901,-2.5802,-0.9618
20080,0.0767,-0.2488,1.0791,0.1985,-2.6412,-0.2901
20090,0.0808,-0.2468,1.0178,0.1221,-2.5191,-1.2977
20100,0.0779,-0.1807,0.9866,0.2137,-2.5344,-0.6565
20110,0.0737,-0.1929,1.0708,0.1069,-2.6412,-1.1298
20120,0.0740,-0.2407,1.0823,0.1985,-2.6718,-0.8397
20130,0.0771,-0.2524,1.0146,0.2901,-2.5191,-0.7939
20140,0.0811,-0.1804,0.9958,0.0763,-2.5954,-1.0840
20150,0.0681,-0.1899,1.0625,0.2443,-2.6107,-0.4580
20160,0.0771,-0.2432,1.0596,0.1832,-2.4885,0.0153
20170,0.0798,-0.2412,1.0007,0.2137,-2.4885,-1.4046
20180,0.0740,-0.1816,1.0176,0.2595,-2.5954,-0.3359
20190,0.0713,-0.1956,1.0771,0.2137,-2.5191,-1.6183
20202,0.0803,-0.2734,1.0693,0.1679,-2.4580,-0.2901
20210,0.0818,-0.2556,1.0022,0.2137,-2.6870,-1.4656
20223,0.0698,-0.1814,1.0142,0.2443,-2.4885,-0.1527
20230,0.0706,-0.2166,1.0823,0.1527,-2.5649,-1.4351
20240,0.0759,-0.2505,1.0696,0.1527,-2.5496,-0.2290
20250,0.0793,-0.2646,0.9939,0.3206,-2.5191,-1.1908
20260,0.0735,-0.1870,1.0129,0.1679,-2.6107,-0.4885
20270,0.0703,-0.2102,1.0803,0.1221,-2.5954,-1.2824
20280,0.0752,-0.2676,1.0720,0.2901,-2.5496,-0.2748
20290,0.0852,-0.2556,0.9993,0.2137,-2.5649,-1.5573
20300,0.0728,-0.1946,1.0061,0.2137,-2.5954,-0.4427
20310,0.0735,-0.2290,1.0769,0.2748,-2.5496,-1.0382
20320,0.0767,-0.2510,1.0762,0.1527,-2.6260,-0.6107
20330,0.0789,-0.2312,0.9978,0.2443,-2.5344,-1.2366
20340,0.0767,-0.1973,1.0037,0.2595,-2.5191,-0.4733
20350,0.0735,-0.1882,1.0781,0.0763,-2.6718,-0.9771
20360,0.0735,-0.2573,1.0720,0.2595,-2.5802,-0.1985
20370,0.0833,-0.2500,1.0017,0.2290,-2.6260,-1.2824
20380,0.0747,-0.1980,1.0071,0.1985,-2.5954,-0.6107
20390,0.0684,-0.1853,1.0703,0.2595,-2.5802,-1.1298
20400,0.0747,-0.2559,1.0774,0.1069,-2.7176,-0.7634
20410,0.0781,-0.2517,1.0093,0.2137,-2.6412,-0.6870
20420,0.0752,-0.2026,0.9946,0.2901,-2.6107,-0.8855
20430,0.0740,-0.2046,1.0754,0.1221,-2.6718,-0.6718
20440,0.0757,-0.2505,1.0779,0.2290,-2.6412,-0.8244
20450,0.0784,-0.2629,1.0103,0.3053,-2.5954,-0.4733
20460,0.0793,-0.1765,1.0020,0.0916,-2.6412,-0.9771
20474,0.0742,-0.2273,1.0881,0.1679,-2.6412,-1.0382
20480,0.0745,-0.2290,1.0828,0.2595,-2.6565,-1.6336
20490,0.0803,-0.2529,1.0139,0.2290,-2.6412,-0.6870
20500,0.0764,-0.2151,0.9919,0.2748,-2.5802,-1.4351
20510,0.0710,-0.1960,1.0781,0.2748,-2.5496,-1.4809
20520,0.0789,-0.2544,1.0605,0.1679,-2.5038,-0.4427
20530,0.0811,-0.2378,0.9978,0.1527,-2.5344,-1.1145
20540,0.0740,-0.1904,1.0166,0.3206,-2.5344,-0.2595
20550,0.0723,-0.2197,1.0823,0.1527,-2.5649,-1.4809
20560,0.0776,-0.2615,1.0708,0.1832,-2.5954,-0.4275
20570,0.0820,-0.2632,0.9915,0.3511,-2.4885,-0.7786
20580,0.0776,-0.2151,1.0134,0.1069,-2.6260,-1.2519
20590,0.0703,-0.2043,1.0815,0.1679,-2.5344,-0.4885
20600,0.0728,-0.2405,1.0688,0.3053,-2.4275,-1.0076
20610,0.0854,-0.2549,1.0051,0.1985,-2.5344,-1.0076
20620,0.0745,-0.1838,1.0110,0.2137,-2.5191,-0.7176
20630,0.0706,-0.2083,1.0728,0.2137,-2.4885,-0.4580
20640,0.0762,-0.2744,1.0713,0.1221,-2.6107,-1.2366
20650,0.0808,-0.2542,1.0027,0.2137,-2.5802,-0.2595
20660,0.0776,-0.2109,1.0042,0.2748,-2.5649,-0.5496
20670,0.0747,-0.1987,1.0740,0.0916,-2.6412,-1.2672
20680,0.0759,-0.2725,1.0701,0.1985,-2.5191,-0.9924
20690,0.0811,-0.2734,1.0115,0.1527,-2.6260,-0.3206
20700,0.0776,-0.1931,1.0005,0.2595,-2.7023,-0.8244
20710,0.0715,-0.1929,1.0706,0.1985,-2.5649,-1.1450
20726,0.0781,-0.2656,1.0508,0.2595,-2.4733,-0.6412
20730,0.0791,-0.2539,1.0161,0.2443,-2.7023,-1.1756
20740,0.0762,-0.2195,0.9919,0.2137,-2.5802,-0.7939
20750,0.0728,-0.2139,1.0686,0.0916,-2.5954,-0.9771
20760,0.0732,-0.2571,1.0813,0.1221,-2.6565,-0.8397
20770,0.0793,-0.2593,1.0229,0.2443,-2.5649,-0.7634
20780,0.0815,-0.2053,0.9954,0.1832,-2.5954,-0.7481
20790,0.0713,-0.1887,1.0562,0.1985,-2.5496,-0.5344
20800,0.0737,-0.2368,1.0825,0.2595,-2.5496,-1.0840
20810,0.0840,-0.2798,1.0352,0.2290,-2.6260,-0.9771
20820,0.0820,-0.2327,0.9905,0.2901,-2.4427,-1.1298
20830,0.0708,-0.2102,1.0430,0.1832,-2.4427,-0.8855
20840,0.0747,-0.2256,1.0852,0.1374,-2.5496,-1.1145
20850,0.0776,-0.2825,1.0479,0.1985,-2.4580,-0.8855
20860,0.0759,-0.2427,0.9934,0.3053,-2.6107,-0.6260
20870,0.0728,-0.2136,1.0710,0.1679,-2.6718,-0.4427
20880,0.0720,-0.2271,1.0815,0.0916,-2.6718,-0.9771
20890,0.0796,-0.2578,1.0186,0.2290,-2.5649,-0.9771
20900,0.0835,-0.2109,0.9973,0.2137,-2.6412,-0.9160
20910,0.0713,-0.1870,1.0527,0.3053,-2.7481,-1.0992
20920,0.0723,-0.2222,1.0811,0.2137,-2.5038,-0.9618
20930,0.0796,-0.2549,1.0369,0.1832,-2.6107,-1.0534
20940,0.0803,-0.1846,0.9900,0.2748,-2.5496,-0.7786
20950,0.0723,-0.2068,1.0405,0.2443,-2.5344,-0.6870
20960,0.0718,-0.2268,1.0842,0.1374,-2.6107,-0.8397
20976,0.0845,-0.2617,1.0127,0.1527,-2.6412,-0.8092
20980,0.0815,-0.2278,0.9944,0.2290,-2.3817,-1.0687
20990,0.0740,-0.1953,1.0266,0.2443,-2.5496,-0.9466
21000,0.0737,-0.2275,1.0764,0.1985,-2.4427,-0.4733
21010,0.0781,-0.2585,1.0632,0.1221,-2.5344,-0.9313
21020,0.0813,-0.2385,1.0005,0.1985,-2.5496,-0.5191
21030,0.0740,-0.1882,1.0054,0.2290,-2.5038,-0.9771
21040,0.0737,-0.2341,1.0791,0.1221,-2.5344,-1.0076
21050,0.0742,-0.2642,1.0745,0.1832,-2.5802,-0.3359
21060,0.0791,-0.2432,1.0027,0.2137,-2.5191,-0.7481
21070,0.0791,-0.1733,0.9978,0.1985,-2.6260,-1.0382
21080,0.0710,-0.1628,1.0732,0.1985,-2.6718,-0.7481
21090,0.0735,-0.2253,1.0818,0.1832,-2.5191,-0.5038
21100,0.0823,-0.2605,1.0215,0.2443,-2.6718,-0.7023
21110,0.0784,-0.2266,0.9878,0.2137,-2.5649,-0.8092
21120,0.0708,-0.1951,1.0544,0.1832,-2.5496,-0.5038
21130,0.0762,-0.2229,1.0879,0.1985,-2.6565,-0.7176
21140,0.0811,-0.2581,1.0281,0.2443,-2.4580,-0.7634
21150,0.0845,-0.2068,0.9927,0.2595,-2.4427,-1.0229
21160,0.0720,-0.1919,1.0459,0.1069,-2.6107,-0.8855
21170,0.0742,-0.1982,1.0850,0.2443,-2.4885,-0.6718
21180,0.0784,-0.2466,1.0503,0.2748,-2.5191,-0.6565
21190,0.0808,-0.2363,1.0002,0.1985,-2.4275,-0.8397
21200,0.0732,-0.1311,1.0183,0.2290,-2.4885,-0.3511
21215,0.0745,-0.2388,1.0723,0.2137,-2.5344,-0.3511
21226,0.0833,-0.2263,0.9946,0.2443,-2.4580,-0.7023
21230,0.0828,-0.1909,0.9929,0.2901,-2.5496,-0.6260
21240,0.0703,-0.1943,1.0405,0.2595,-2.5496,-0.6870
21250,0.0728,-0.1987,1.0854,0.1527,-2.5496,-0.8702
21260,0.0771,-0.2444,1.0422,0.2443,-2.5344,-0.8244
21270,0.0803,-0.2146,0.9910,0.2137,-2.4275,-0.8092
21280,0.0735,-0.1648,1.0256,0.0916,-2.5191,-0.6260
21290,0.0718,-0.2014,1.0818,0.1985,-2.5802,-0.8397
21300,0.0757,-0.2402,1.0654,0.3053,-2.5038,-0.7481
21310,0.0845,-0.2041,1.0022,0.1832,-2.5191,-0.2901
21320,0.0720,-0.1504,1.0037,0.2290,-2.4885,-0.7634
21330,0.0732,-0.1458,1.0823,0.2443,-2.6260,-0.7939
21340,0.0769,-0.2085,1.0842,0.1832,-2.6107,-0.8397
21350,0.0786,-0.2119,1.0024,0.2748,-2.4733,-0.7023
21360,0.0789,-0.1980,0.9946,0.2290,-2.6107,-1.0229
21370,0.0723,-0.1719,1.0640,0.2137,-2.6718,-0.5344
21380,0.0732,-0.2339,1.0793,0.2290,-2.5038,-0.3053
21390,0.0803,-0.2588,1.0288,0.2290,-2.5344,-0.5344
21400,0.0784,-0.2146,0.9929,0.1069,-2.5802,-0.7176
21410,0.0698,-0.1604,1.0437,0.1832,-2.4733,-0.5649
21420,0.0750,-0.1890,1.0879,0.1679,-2.5344,-1.0076
21430,0.0769,-0.2322,1.0479,0.2595,-2.4885,-1.0076
21440,0.0811,-0.1919,0.9897,0.2290,-2.4275,-1.0229
21450,0.0737,-0.1772,1.0251,0.1374,-2.5191,-0.9313
21460,0.0740,-0.1707,1.0747,0.2443,-2.5954,-0.6870
21476,0.0793,-0.2188,1.0222,0.2443,-2.6107,-0.7786
21485,0.0818,-0.1809,0.9932,0.1527,-2.6260,-0.7634
21490,0.0759,-0.1658,1.0032,0.2748,-2.5802,-0.7328
21500,0.0725,-0.1787,1.0803,0.1985,-2.5802,-0.7939
21510,0.0762,-0.2266,1.0835,0.1679,-2.6260,-0.7023
21520,0.0825,-0.2000,1.0100,0.2901,-2.5191,-0.8855
21530,0.0806,-0.1755,0.9946,0.2137,-2.7023,-0.8702
21540,0.0720,-0.1702,1.0659,0.1985,-2.5802,-1.0992
21550,0.0742,-0.2139,1.0823,0.2137,-2.5496,-0.5802
21560,0.0806,-0.2122,0.9971,0.2748,-2.4885,-0.6412
21570,0.0754,-0.1602,1.0103,0.1679,-2.6107,-1.1603
21580,0.0693,-0.2192,1.0752,0.1527,-2.5954,-0.5496
21590,0.0715,-0.2354,1.0767,0.2595,-2.5344,-0.7023
21600,0.0808,-0.2603,1.0129,0.1832,-2.5802,-1.0229
21610,0.0762,-0.1873,0.9944,0.2137,-2.5802,-0.9160
21620,0.0708,-0.1877,1.0620,0.2443,-2.6107,-0.8397
21630,0.0806,-0.2163,1.0886,0.1679,-2.7328,-1.0229
21640,0.0801,-0.2173,1.0271,0.2443,-2.5649,-0.6870
21650,0.0818,-0.1738,0.9897,0.2290,-2.5191,-0.9466
21660,0.0730,-0.1487,1.0430,0.2137,-2.5649,-0.8855
21670,0.0742,-0.2039,1.0818,0.2748,-2.5191,-0.8092
21680,0.0771,-0.2312,1.0559,0.2290,-2.6107,-0.6718
21690,0.0847,-0.2085,0.9966,0.1069,-2.5344,-0.5191
21700,0.0735,-0.1665,1.0164,0.3053,-2.5038,-0.6412
21710,0.0747,-0.1807,1.0835,0.1679,-2.5954,-0.7634
21723,0.0823,-0.2117,1.0398,0.2137,-2.6412,-0.9313
21730,0.0830,-0.2207,1.0012,0.2595,-2.4733,-0.6718
21740,0.0789,-0.1853,1.0044,0.1985,-2.6412,-0.9008
21750,0.0681,-0.1614,1.0701,0.2137,-2.5954,-0.5954
21760,0.0728,-0.2036,1.0798,0.2443,-2.5191,-0.7786
21770,0.0818,-0.2502,1.0227,0.1221,-2.6565,-0.6412
21780,0.0811,-0.1748,0.9934,0.2748,-2.5802,-0.8702
21790,0.0710,-0.1409,1.0498,0.2290,-2.5649,-0.8550
21800,0.0759,-0.2090,1.0864,0.1527,-2.5649,-0.5802
21810,0.0781,-0.2058,1.0396,0.2595,-2.5038,-0.5344
21820,0.0818,-0.1824,0.9973,0.2595,-2.4885,-0.7634
21830,0.0684,-0.1587,1.0303,0.2137,-2.5954,-1.3282
21840,0.0706,-0.1814,1.0793,0.2137,-2.4427,-0.9008
21850,0.0774,-0.2263,1.0645,0.1069,-2.5344,-0.6565
21860,0.0818,-0.2073,0.9973,0.2443,-2.5344,-0.8855
21870,0.0728,-0.1619,1.0042,0.2290,-2.5344,-0.7634
21880,0.0752,-0.1553,1.0774,0.0763,-2.5802,-0.7023
21890,0.0752,-0.2241,1.0771,0.2290,-2.5954,-0.7328
21900,0.0845,-0.2480,1.0117,0.2137,-2.5038,-0.6260
21910,0.0752,-0.1682,1.0183,0.2748,-2.4275,-0.7176
21920,0.0754,-0.1489,1.0862,0.1374,-2.5496,-0.8855
21930,0.0730,-0.2510,1.0676,0.1679,-2.4580,-0.9771
21940,0.0803,-0.2231,1.0049,0.1679,-2.5344,-0.6870
21950,0.0798,-0.1765,1.0051,0.1679,-2.6260,-0.6718
21960,0.0701,-0.1650,1.0706,0.2748,-2.6412,-0.7634
21972,0.0767,-0.2197,1.0771,0.1679,-2.5802,-0.5344
21980,0.0806,-0.2122,1.0200,0.1679,-2.5954,-1.1603
21990,0.0789,-0.1665,0.9875,0.3206,-2.6260,-0.5649
22000,0.0715,-0.1301,1.0505,0.1069,-2.6412,-0.7023
22010,0.0754,-0.1804,1.0867,0.1221,-2.5802,-1.0534
22020,0.0752,-0.2305,1.0386,0.2595,-2.5038,-0.6718
22030,0.0857,-0.1875,0.9988,0.1985,-2.5344,-1.0076
22040,0.0737,-0.1372,1.0256,0.2137,-2.4427,-0.7939
22050,0.0693,-0.1560,1.0767,0.2137,-2.5038,-0.6718
22060,0.0776,-0.1985,1.0708,0.1527,-2.5496,-0.6260
22070,0.0796,-0.2458,1.0017,0.3053,-2.5496,-0.6260
22080,0.0767,-0.1489,1.0039,0.1985,-2.4733,-0.7328
22090,0.0720,-0.1438,1.0779,0.1527,-2.6107,-0.7786
22100,0.0757,-0.2261,1.0798,0.1832,-2.5954,-0.7328
22110,0.0837,-0.2498,1.0183,0.1527,-2.4427,-1.0840
22120,0.0811,-0.1670,0.9968,0.1985,-2.6260,-0.7328
22130,0.0708,-0.1321,1.0522,0.2748,-2.5496,-0.8092
22140,0.0740,-0.1987,1.0825,0.1832,-2.5496,-1.0076
22150,0.0793,-0.2415,1.0408,0.2748,-2.6565,-0.8550
22160,0.0808,-0.1960,0.9883,0.2137,-2.4275,-0.6718
22170,0.0720,-0.1602,1.0356,0.1221,-2.5496,-0.7786
22180,0.0737,-0.1824,1.0840,0.2443,-2.5954,-0.9008
22190,0.0747,-0.2224,1.0615,0.2901,-2.3969,-1.0992
22200,0.0854,-0.2048,1.0012,0.1832,-2.4733,-0.8550
22210,0.0735,-0.1399,1.0127,0.2595,-2.6107,-0.7481
22228,0.0789,-0.2073,1.0774,0.0763,-2.6107,-0.3817
22231,0.0789,-0.2073,1.0774,0.0763,-2.6107,-0.3817
22240,0.0801,-0.2227,1.0049,0.1832,-2.5496,-0.6718
22250,0.0784,-0.1565,0.9963,0.2901,-2.5954,-0.5344
22260,0.0720,-0.1721,1.0688,0.2595,-2.6870,-0.6870
22270,0.0762,-0.2161,1.0706,0.1985,-2.5649,-0.9771
22280,0.0840,-0.2148,0.9941,0.2443,-2.5038,-0.9618
22290,0.0762,-0.1331,1.0051,0.1527,-2.5191,-0.9924
22300,0.0728,-0.1738,1.0781,0.1679,-2.6412,-0.6107
22310,0.0723,-0.1868,1.0737,0.2595,-2.6412,-0.8092
22320,0.0815,-0.2432,1.0171,0.1832,-2.5802,-0.4885
22330,0.0813,-0.1890,0.9993,0.1679,-2.6260,-1.3130
22340,0.0688,-0.1536,1.0566,0.2443,-2.5191,-0.9008
22350,0.0771,-0.1631,1.0847,0.1221,-2.5802,-0.4427
22360,0.0793,-0.1973,1.0388,0.2137,-2.6412,-0.9160
22370,0.0798,-0.1663,0.9939,0.2748,-2.4427,-0.7328
22380,0.0776,-0.1169,1.0300,0.1985,-2.6412,-0.7481
22390,0.0732,-0.1484,1.0815,0.2748,-2.5496,-1.0076
22400,0.0754,-0.2065,1.0635,0.2137,-2.4275,-0.7023
22410,0.0835,-0.2097,1.0032,0.1832,-2.5496,-0.7939
22420,0.0752,-0.1387,1.0044,0.2137,-2.5344,-0.7481
22430,0.0708,-0.1311,1.0703,0.2290,-2.5802,-0.9618
22440,0.0767,-0.1987,1.0828,0.1527,-2.5649,-0.7786
22450,0.0828,-0.2144,1.0132,0.2290,-2.5344,-0.8855
22460,0.0825,-0.1584,0.9961,0.2290,-2.5191,-0.7328
22479,0.0723,-0.1794,1.0764,0.2748,-2.5038,-1.1756
22482,0.0723,-0.1794,1.0764,0.2748,-2.5038,-1.1756
22490,0.0791,-0.2170,1.0439,0.2137,-2.5649,-0.9924
22500,0.0830,-0.2039,0.9956,0.2137,-2.5649,-0.7786
22510,0.0708,-0.1523,1.0210,0.2137,-2.4733,-0.6870
22520,0.0740,-0.1729,1.0789,0.1679,-2.4885,-0.5496
22530,0.0730,-0.2192,1.0706,0.1374,-2.5496,-1.0840
22540,0.0811,-0.2058,0.9998,0.2595,-2.5038,-1.0076
22550,0.0801,-0.1680,1.0088,0.1527,-2.5496,-0.9466
22560,0.0706,-0.1357,1.0676,0.1374,-2.5344,-0.7176
22570,0.0750,-0.1970,1.0771,0.2290,-2.5038,-0.5038
22580,0.0828,-0.2236,1.0217,0.1527,-2.6260,-1.2214
22590,0.0789,-0.1543,0.9917,0.1221,-2.6107,-0.3664
22600,0.0676,-0.1343,1.0488,0.2595,-2.4885,-1.0382
22610,0.0737,-0.1726,1.0889,0.1374,-2.6260,-0.8092
22620,0.0754,-0.2288,1.0432,0.2901,-2.5954,-0.5496
22630,0.0789,-0.1331,0.9998,0.2901,-2.5344,-0.6565
22640,0.0715,-0.1377,1.0630,0.1527,-2.5344,-0.7176
22650,0.0754,-0.1802,1.0869,0.1527,-2.5802,-0.8397
22660,0.0801,-0.2129,1.0298,0.2443,-2.6107,-0.8702
22670,0.0820,-0.1868,0.9978,0.2290,-2.6107,-0.7786
22680,0.0713,-0.1414,1.0364,0.1832,-2.5954,-1.0534
22690,0.0703,-0.1760,1.0789,0.2748,-2.5802,-0.5496
22700,0.0771,-0.2371,1.0571,0.1832,-2.6412,-0.4885
22710,0.0820,-0.2197,0.9980,0.1985,-2.4885,-0.9160
22722,0.0713,-0.1685,1.0110,0.2290,-2.3817,-0.4885
22730,0.0730,-0.1658,1.0835,0.2137,-2.5954,-1.1145
22740,0.0737,-0.2183,1.0708,0.2443,-2.5191,-0.5954
22750,0.0825,-0.2202,1.0007,0.2443,-2.5649,-0.6870
22760,0.0771,-0.1760,1.0042,0.1069,-2.5802,-0.7939
22770,0.0681,-0.1821,1.0718,0.1985,-2.5344,-0.6412
22780,0.0728,-0.2290,1.0874,0.2595,-2.6107,-0.6718
22790,0.0823,-0.2559,1.0178,0.2137,-2.6565,-0.9771
22800,0.0786,-0.1711,0.9875,0.2595,-2.5802,-0.7176
22810,0.0718,-0.1340,1.0542,0.1832,-2.5496,-0.5496
22820,0.0759,-0.1814,1.0842,0.1832,-2.6565,-0.8550
22830,0.0784,-0.2351,1.0325,0.3053,-2.4885,-0.7023
22840,0.0828,-0.1885,0.9961,0.2137,-2.5038,-0.7786
22850,0.0708,-0.1741,1.0374,0.2290,-2.5344,-0.7939
22860,0.0730,-0.1836,1.0823,0.2901,-2.4885,-0.8244
22870,0.0786,-0.2295,1.0625,0.1679,-2.5649,-0.9160
22880,0.0830,-0.2109,0.9954,0.2443,-2.4275,-0.8397
22890,0.0735,-0.1758,1.0132,0.2901,-2.5496,-0.7023
22900,0.0730,-0.1909,1.0842,0.1374,-2.5496,-1.1145
22910,0.0750,-0.2087,1.0728,0.1832,-2.5344,-0.9160
22920,0.0828,-0.2368,1.0054,0.1374,-2.4580,-0.7939
22930,0.0774,-0.1689,1.0046,0.1527,-2.5649,-1.2061
22940,0.0730,-0.1538,1.0667,0.2290,-2.5191,-0.6870
22950,0.0740,-0.2288,1.0813,0.1832,-2.6107,-0.9771
22960,0.0818,-0.2532,1.0244,0.1679,-2.7176,-0.6107
22973,0.0754,-0.1245,1.0103,0.1527,-2.5649,-0.9160
22980,0.0701,-0.1646,1.0740,0.2595,-2.5038,-0.4427
22990,0.0781,-0.2183,1.0715,0.1985,-2.6412,-1.0840
23000,0.0833,-0.2202,1.0078,0.1221,-2.6260,-0.9924
23010,0.0754,-0.1914,0.9929,0.1832,-2.5802,-0.7939
23020,0.0750,-0.1545,1.0684,0.1527,-2.7328,-0.9160
23030,0.0740,-0.2104,1.0762,0.2443,-2.6107,-0.8244
23040,0.0793,-0.1929,1.0291,0.2137,-2.4885,-0.8092
23050,0.0825,-0.1685,0.9944,0.1985,-2.7176,-0.7786
23060,0.0693,-0.1282,1.0442,0.2901,-2.5496,-0.7786
23070,0.0740,-0.1658,1.0801,0.2748,-2.5344,-0.5344
23080,0.0813,-0.2136,1.0535,0.1221,-2.5038,-0.6107
23090,0.0808,-0.1848,0.9946,0.3053,-2.5191,-0.7023
23100,0.0762,-0.1316,1.0186,0.1832,-2.5496,-0.9160
23110,0.0725,-0.1362,1.0813,0.1679,-2.6260,-0.9008
23120,0.0740,-0.1956,1.0662,0.2748,-2.4733,-0.9313
23130,0.0837,-0.1807,1.0071,0.1985,-2.5496,-0.7481
23140,0.0781,-0.1267,0.9932,0.2290,-2.6107,-1.0687
23150,0.0686,-0.1003,1.0557,0.2443,-2.5649,-1.2366
23160,0.0759,-0.1472,1.0840,0.0916,-2.6870,-1.2214
23170,0.0803,-0.1514,1.0356,0.3206,-2.6107,-0.9771
23180,0.0833,-0.1262,0.9924,0.3969,-2.4275,-0.6870
23190,0.0720,-0.0815,1.0352,0.1069,-2.5802,-0.9160
23200,0.0723,-0.0947,1.0808,0.2595,-2.5649,-0.5191
23210,0.0767,-0.1592,1.0654,0.1985,-2.5954,-1.1908
23223,0.0818,-0.1196,0.9937,0.2595,-2.5496,-0.6107
23232,0.0713,-0.0811,1.0413,0.1679,-2.6565,-1.1756
23240,0.0735,-0.0923,1.0688,0.2290,-2.6870,-0.9618
23250,0.0776,-0.1365,1.0852,0.1527,-2.6718,-0.8397
23260,0.0789,-0.1667,1.0266,0.2290,-2.5496,-1.1145
23270,0.0808,-0.1233,0.9927,0.1527,-2.5649,-1.4198
23280,0.0750,-0.0964,1.0410,0.2443,-2.6260,-0.6412
23290,0.0745,-0.1179,1.0813,0.2137,-2.4275,-0.6412
23300,0.0813,-0.1614,1.0605,0.1832,-2.5649,-0.9466
23310,0.0828,-0.1501,0.9983,0.2290,-2.5496,-0.5802
23320,0.0757,-0.0955,1.0083,0.2443,-2.4733,-0.6718
23330,0.0759,-0.1226,1.0828,0.2901,-2.5954,-0.7328
23340,0.0818,-0.1658,1.0586,0.2137,-2.5954,-0.8092
23350,0.0796,-0.1482,0.9966,0.3053,-2.5954,-0.9313
23360,0.0754,-0.0828,1.0056,0.2595,-2.5038,-0.7786
23370,0.0723,-0.1060,1.0852,0.1069,-2.5649,-0.6565
23380,0.0764,-0.1506,1.0803,0.2290,-2.6565,-0.6260
23390,0.0811,-0.1470,1.0154,0.2137,-2.5496,-1.0687
23400,0.0801,-0.1028,0.9998,0.1832,-2.5954,-0.9466
23410,0.0688,-0.0735,1.0537,0.2748,-2.6107,-0.9008
23420,0.0759,-0.1099,1.0845,0.1374,-2.4427,-0.6412
23430,0.0776,-0.1494,1.0508,0.2137,-2.6107,-0.7786
23440,0.0820,-0.1289,0.9922,0.2595,-2.3664,-0.6870
23450,0.0747,-0.0771,1.0208,0.1374,-2.5344,-0.8092
23460,0.0745,-0.0908,1.0818,0.2290,-2.5344,-1.2366
23474,0.0776,-0.1553,1.0442,0.1832,-2.5344,-1.0687
23480,0.0830,-0.1487,1.0129,0.1832,-2.4580,-0.9924
23490,0.0793,-0.0798,0.9951,0.2443,-2.5954,-0.9160
23500,0.0681,-0.0825,1.0588,0.2748,-2.4733,-1.0076
23510,0.0767,-0.1121,1.0901,0.1221,-2.6718,-1.0229
23520,0.0774,-0.1299,1.0471,0.3359,-2.4580,-1.0076
23530,0.0837,-0.1152,0.9973,0.2443,-2.5496,-0.7176
23540,0.0754,-0.0601,1.0212,0.2290,-2.5954,-0.6565
23550,0.0706,-0.0764,1.0747,0.1527,-2.5038,-0.8092
23560,0.0764,-0.1306,1.0757,0.1832,-2.4427,-0.6565
23570,0.0850,-0.1453,1.0151,0.2748,-2.6870,-0.6565
23580,0.0774,-0.0811,0.9934,0.2443,-2.5954,-0.6260
23590,0.0710,-0.0613,1.0610,0.1374,-2.6107,-0.8855
23600,0.0762,-0.0972,1.0850,0.2137,-2.6870,-0.6870
23610,0.0781,-0.1272,1.0435,0.2290,-2.5038,-0.7023
23620,0.0842,-0.1147,0.9988,0.1374,-2.5954,-0.6870
23630,0.0747,-0.0591,1.0151,0.2137,-2.6412,-0.9924
23640,0.0706,-0.0745,1.0740,0.1985,-2.4427,-0.9313
23650,0.0779,-0.1208,1.0808,0.1527,-2.7176,-0.6870
23660,0.0828,-0.1265,1.0132,0.2137,-2.5802,-0.8855
23670,0.0771,-0.0852,0.9934,0.1679,-2.5038,-0.4427
23680,0.0742,-0.0688,1.0767,0.2290,-2.6718,-0.9771
23690,0.0769,-0.1196,1.0842,0.1374,-2.5649,-0.9160
23700,0.0801,-0.1174,1.0090,0.2748,-2.4580,-0.5344
23710,0.0789,-0.0901,0.9944,0.2595,-2.6107,-0.5496
23723,0.0737,-0.0500,1.0579,0.1832,-2.7023,-0.6718
23730,0.0732,-0.0813,1.0837,0.1985,-2.4733,-0.9008
23740,0.0771,-0.1255,1.0552,0.1832,-2.4580,-0.8855
23750,0.0862,-0.1057,0.9951,0.2290,-2.5191,-1.1145
23760,0.0723,-0.0559,1.0078,0.2137,-2.5802,-0.8244
23770,0.0725,-0.0649,1.0796,0.0916,-2.5802,-0.9160
23780,0.0745,-0.1040,1.0762,0.2290,-2.5496,-1.0840
23790,0.0784,-0.1260,1.0134,0.3053,-2.5496,-0.6870
23800,0.0845,-0.0908,0.9976,0.1679,-2.7786,-0.8702
23810,0.0688,-0.0537,1.0466,0.1374,-2.6718,-0.7176
23820,0.0754,-0.0859,1.0803,0.1527,-2.4733,-0.7023
23830,0.0798,-0.1272,1.0627,0.1679,-2.5344,-1.0076
23840,0.0840,-0.1135,1.0012,0.2748,-2.4122,-0.3969
23850,0.0769,-0.0574,1.0049,0.2901,-2.5344,-0.8244
23860,0.0742,-0.0547,1.0754,0.1527,-2.6718,-0.6718
23870,0.0747,-0.1033,1.0803,0.2137,-2.7328,-0.5038
23880,0.0806,-0.1235,1.0295,0.2443,-2.7176,-0.9313
23890,0.0828,-0.0884,0.9949,0.1527,-2.6107,-0.9008
23900,0.0718,-0.0444,1.0317,0.1527,-2.4885,-0.7481
23910,0.0759,-0.0752,1.0881,0.1679,-2.5649,-0.7786
23920,0.0764,-0.1147,1.0718,0.1679,-2.5649,-0.8550
23930,0.0798,-0.1238,1.0061,0.3053,-2.3969,-1.0687
23940,0.0823,-0.0808,0.9985,0.1985,-2.6870,-0.7939
23950,0.0715,-0.0549,1.0674,0.1069,-2.7481,-0.9771
23960,0.0764,-0.1038,1.0803,0.2290,-2.5191,-0.7023
23973,0.0815,-0.1287,0.9985,0.3511,-2.4275,-0.6718
23980,0.0813,-0.1038,0.9893,0.2290,-2.5191,-0.5496
23990,0.0737,-0.0593,1.0225,0.2443,-2.6107,-0.8092
24000,0.0779,-0.0820,1.0840,0.1221,-2.5954,-0.9008
24010,0.0771,-0.1272,1.0730,0.2290,-2.3969,-0.7176
24020,0.0806,-0.1326,1.0056,0.2443,-2.5496,-0.9160
24030,0.0796,-0.0796,1.0010,0.1527,-2.7786,-0.9160
24040,0.0740,-0.0728,1.0796,0.2595,-2.5191,-0.7481
24050,0.0735,-0.1167,1.0730,0.2290,-2.4275,-0.7176
24060,0.0828,-0.1304,1.0105,0.0916,-2.5802,-0.9160
24070,0.0791,-0.0774,0.9976,0.1527,-2.7023,-0.7176
24080,0.0735,-0.0588,1.0581,0.2137,-2.5344,-0.7939
24090,0.0791,-0.0955,1.0857,0.2290,-2.5802,-0.7634
24100,0.0798,-0.1287,1.0374,0.1985,-2.5802,-0.8397
24110,0.0811,-0.1079,0.9939,0.1527,-2.5496,-0.6718
24120,0.0754,-0.0625,1.0188,0.2443,-2.6718,-1.0382
24130,0.0732,-0.0852,1.0798,0.2748,-2.3969,-0.5954
24140,0.0764,-0.1267,1.0737,0.1679,-2.3817,-0.5038
24150,0.0825,-0.1272,1.0144,0.1527,-2.5496,-0.6718
24160,0.0806,-0.0691,0.9944,0.1985,-2.6412,-0.5649
24170,0.0710,-0.0542,1.0540,0.2595,-2.6260,-0.7328
24180,0.0742,-0.0994,1.0889,0.1069,-2.5344,-0.4733
24190,0.0793,-0.1265,1.0417,0.2443,-2.3817,-0.5191
24200,0.0852,-0.1040,0.9946,0.1985,-2.4427,-0.6870
24210,0.0767,-0.0635,1.0127,0.1832,-2.5802,-0.7939
24221,0.0691,-0.0671,1.0718,0.3511,-2.5191,-1.0992
24230,0.0779,-0.1030,1.0803,0.2443,-2.6412,-1.0229
24242,0.0864,-0.1143,1.0020,0.1221,-2.3969,-0.9160
24250,0.0784,-0.0850,0.9939,0.2443,-2.4733,-0.9618
24260,0.0718,-0.0513,1.0498,0.0916,-2.5802,-0.7786
24270,0.0740,-0.0818,1.0845,0.1679,-2.5344,-0.7176
24280,0.0776,-0.1228,1.0532,0.2595,-2.4580,-0.8702
24290,0.0852,-0.1096,1.0020,0.0916,-2.7023,-0.7481
24300,0.0759,-0.0508,0.9968,0.2290,-2.6412,-0.6260
24310,0.0735,-0.0618,1.0688,0.2290,-2.6870,-0.4885
24320,0.0764,-0.1082,1.0833,0.1221,-2.7176,-0.7481
24330,0.0811,-0.1331,1.0266,0.3053,-2.5496,-1.0840
24340,0.0842,-0.0857,0.9966,0.2137,-2.3969,-0.8550
24350,0.0754,-0.0483,1.0369,0.2137,-2.5496,-0.6870
24360,0.0737,-0.0684,1.0747,0.2595,-2.3511,-0.5649
24370,0.0789,-0.1123,1.0718,0.1527,-2.4427,-0.6107
24380,0.0840,-0.0884,0.9897,0.2290,-2.5038,-0.7481
24390,0.0718,-0.0459,1.0312,0.1832,-2.4580,-0.6718
24400,0.0713,-0.0640,1.0811,0.2137,-2.3664,-0.5344
24410,0.0789,-0.1223,1.0708,0.1832,-2.4427,-0.9466
24420,0.0835,-0.1143,1.0076,0.1832,-2.5038,-0.6718
24430,0.0786,-0.0640,0.9929,0.2595,-2.5038,-0.4427
24440,0.0754,-0.0410,1.0608,0.1679,-2.5802,-0.7634
24450,0.0759,-0.0754,1.0764,0.2137,-2.4427,-0.7786
24460,0.0762,-0.1138,1.0454,0.2595,-2.3969,-0.8702
24473,0.0835,-0.0984,1.0051,0.1985,-2.4122,-0.8244
24480,0.0745,-0.0408,1.0078,0.2748,-2.5191,-0.7634
24490,0.0720,-0.0569,1.0671,0.2595,-2.5649,-1.0229
24500,0.0769,-0.1042,1.0854,0.0916,-2.6870,-0.8397
24510,0.0786,-0.1150,1.0229,0.3206,-2.5649,-1.1450
24520,0.0818,-0.0823,0.9934,0.3511,-2.5344,-0.7634
24530,0.0710,-0.0476,1.0405,0.2595,-2.5344,-0.5802
24540,0.0730,-0.0640,1.0791,0.2901,-2.4275,-0.4580
24550,0.0771,-0.1116,1.0723,0.2290,-2.5344,-0.7786
24560,0.0823,-0.1184,1.0049,0.2137,-2.5496,-0.6412
24570,0.0757,-0.0591,0.9922,0.3359,-2.5038,-0.7634
24580,0.0730,-0.0444,1.0681,0.1679,-2.6107,-0.6107
24590,0.0754,-0.0923,1.0854,0.2748,-2.6107,-0.9618
24600,0.0762,-0.1216,1.0352,0.2595,-2.4275,-1.1450
24610,0.0840,-0.0981,0.9934,0.1679,-2.5649,-0.8092
24620,0.0762,-0.0413,1.0146,0.2748,-2.5802,-0.8397
24630,0.0718,-0.0632,1.0754,0.1985,-2.5191,-0.8397
24640,0.0767,-0.1094,1.0815,0.1221,-2.5954,-0.8397
24650,0.0830,-0.1189,1.0061,0.2595,-2.5496,-0.6260
24660,0.0791,-0.0728,0.9985,0.1985,-2.5954,-0.5954
24670,0.0742,-0.0466,1.0508,0.1679,-2.7939,-0.5038
24680,0.0745,-0.0706,1.0784,0.2137,-2.6412,-0.9618
24690,0.0789,-0.1174,1.0522,0.1374,-2.5191,-0.4885
24700,0.0845,-0.1038,0.9976,0.2137,-2.6412,-0.8244
24710,0.0740,-0.0476,1.0022,0.2595,-2.5191,-0.9008
24722,0.0740,-0.0696,1.0789,0.3206,-2.4733,-1.0840
24730,0.0759,-0.0918,1.0820,0.2443,-2.6565,-0.9466
